counter,dt,ax,ay,az,gx,gy,gz
0,,116,8682,4932,6,-3,0
256,0.02,140,8692,4921,9,-2,1
511,0.019921875000000002,166,8714,4928,9,-2,0
768,0.020078125,205,8696,4918,9,-2,1
1025,0.020078125,212,8691,4929,9,-2,1
1279,0.01984375,277,8689,4914,9,-2,1
1534,0.019921875000000002,270,8682,4909,10,-2,1
1789,0.019921875000000002,288,8697,4924,9,-2,1
2045,0.02,335,8694,4926,10,-3,1
2299,0.01984375,344,8682,4918,10,-3,1
2556,0.020078125,353,8686,4925,10,-2,1
2810,0.01984375,400,8683,4935,9,-3,0
3068,0.02015625,418,8696,4925,10,-3,1
3325,0.020078125,467,8683,4930,9,-3,1
3580,0.019921875000000002,467,8693,4916,9,-2,1
3835,0.019921875000000002,521,8683,4917,9,-3,0
4092,0.020078125,518,8668,4929,9,-3,1
4346,0.01984375,559,8692,4909,9,-3,1
4603,0.020078125,604,8654,4930,9,-3,0
4859,0.02,619,8670,4927,9,-2,1
5114,0.019921875000000002,629,8679,4927,10,-2,1
5372,0.02015625,693,8656,4914,9,-3,0
5629,0.020078125,707,8668,4902,9,-3,1
5883,0.01984375,754,8713,4931,9,-4,1
6140,0.020078125,739,8661,4915,9,-2,1
6396,0.02,775,8650,4900,9,-3,2
6653,0.020078125,806,8677,4917,9,-3,0
6909,0.02,862,8648,4938,9,-2,1
7167,0.02015625,855,8657,4915,9,-3,0
7425,0.02015625,864,8657,4949,9,-3,1
7679,0.01984375,930,8655,4919,10,-3,2
7935,0.02,939,8631,4905,10,-2,1
8190,0.019921875000000002,957,8668,4909,9,-3,1
8446,0.02,990,8641,4931,10,-3,1
8700,0.01984375,985,8640,4914,9,-3,1
8956,0.02,1056,8617,4927,9,-3,1
9210,0.01984375,1077,8654,4924,9,-3,1
9467,0.020078125,1098,8614,4928,9,-2,2
9723,0.02,1109,8623,4905,9,-3,1
9981,0.02015625,1138,8614,4895,9,-4,1
10239,0.02015625,1162,8618,4901,8,-2,0
10496,0.020078125,1185,8644,4971,9,-3,1
10752,0.02,1254,8598,4924,10,-3,1
11009,0.020078125,1252,8588,4924,9,-3,1
11266,0.020078125,1288,8620,4930,9,-3,1
11520,0.01984375,1296,8605,4927,10,-3,1
11775,0.019921875000000002,1322,8580,4946,9,-3,0
12033,0.02015625,1373,8599,4912,9,-3,1
12288,0.019921875000000002,1382,8586,4925,9,-3,0
12542,0.01984375,1409,8586,4933,9,-4,1
12800,0.02015625,1464,8556,4942,9,-3,0
13058,0.02015625,1460,8594,4938,10,-3,1
13315,0.020078125,1517,8576,4942,9,-3,0
13572,0.020078125,1532,8547,4941,9,-3,1
13827,0.019921875000000002,1571,8571,4906,9,-4,1
14082,0.019921875000000002,1593,8565,4919,9,-4,0
14340,0.02015625,1586,8555,4947,9,-5,1
14598,0.02015625,1623,8552,4954,8,-4,1
14854,0.02,1625,8562,4936,10,-4,1
15109,0.019921875000000002,1691,8538,4934,9,-4,1
15363,0.01984375,1699,8535,4946,9,-4,2
15617,0.01984375,1716,8512,4934,10,-4,1
15873,0.02,1766,8531,4939,10,-4,0
16129,0.02,1803,8506,4933,10,-5,0
16386,0.020078125,1781,8496,4938,9,-4,0
16644,0.02015625,1797,8503,4924,9,-3,1
16899,0.019921875000000002,1869,8499,4940,9,-4,1
17153,0.01984375,1896,8484,4940,9,-4,1
17411,0.02015625,1880,8465,4910,8,-4,1
17668,0.020078125,1931,8481,4948,10,-4,1
17924,0.02,1963,8459,4923,8,-4,1
18178,0.01984375,1999,8491,4912,9,-4,1
18434,0.02,2011,8432,4947,9,-4,0
18691,0.020078125,2029,8459,4930,9,-4,1
18949,0.02015625,2060,8424,4949,9,-3,1
19205,0.02,2089,8445,4962,10,-4,1
19461,0.02,2133,8420,4938,9,-4,0
19716,0.019921875000000002,2119,8395,4917,9,-4,2
19972,0.02,2185,8405,4939,9,-4,1
20226,0.01984375,2204,8407,4950,8,-4,2
20480,0.01984375,2223,8427,4935,9,-4,1
20737,0.020078125,2234,8405,4921,9,-4,1
20992,0.019921875000000002,2267,8398,4930,10,-5,1
21250,0.02015625,2267,8362,4955,9,-5,0
21505,0.019921875000000002,2279,8369,4971,9,-5,1
21763,0.02015625,2325,8365,4936,9,-4,1
22017,0.01984375,2384,8351,4949,10,-5,0
22271,0.01984375,2420,8351,4956,9,-4,1
22527,0.02,2429,8370,4930,9,-5,1
22785,0.02015625,2428,8348,4927,10,-6,0
23039,0.01984375,2451,8319,4939,9,-5,1
23295,0.02,2505,8308,4947,9,-4,1
23550,0.019921875000000002,2532,8346,4935,9,-5,0
23807,0.020078125,2534,8294,4935,9,-4,0
24063,0.02,2592,8310,4934,9,-4,1
24320,0.020078125,2582,8289,4941,8,-4,0
24575,0.019921875000000002,2649,8301,4933,9,-6,0
24830,0.019921875000000002,2650,8258,4948,10,-5,0
25087,0.020078125,2684,8289,4919,9,-4,0
25342,0.019921875000000002,2686,8250,4930,9,-4,0
25599,0.020078125,2738,8239,4957,9,-5,1
25853,0.01984375,2767,8246,4912,9,-5,1
26108,0.019921875000000002,2760,8237,4926,8,-4,1
26362,0.01984375,2797,8243,4931,9,-5,0
26616,0.01984375,2839,8205,4932,10,-5,0
26871,0.019921875000000002,2881,8242,4932,8,-5,1
27127,0.02,2879,8178,4947,9,-5,1
27381,0.01984375,2938,8188,4934,9,-4,0
27635,0.01984375,2935,8170,4967,9,-4,0
27893,0.02015625,2966,8171,4926,9,-4,1
28149,0.02,2957,8157,4926,9,-5,0
28406,0.020078125,2983,8155,4932,8,-4,1
28663,0.020078125,3021,8118,4952,9,-4,1
28917,0.01984375,3063,8126,4952,9,-4,1
29174,0.020078125,3075,8111,4952,10,-5,1
29432,0.02015625,3112,8105,4954,8,-5,0
29688,0.02,3097,8084,4927,9,-4,1
29946,0.02015625,3141,8088,4956,8,-5,1
30204,0.02015625,3178,8088,4940,9,-6,1
30460,0.02,3203,8050,4917,9,-5,0
30714,0.01984375,3229,8075,4907,8,-6,2
30971,0.020078125,3260,8059,4924,8,-5,1
31229,0.02015625,3288,8034,4946,9,-5,1
31485,0.02,3280,7993,4957,9,-6,0
31743,0.02015625,3331,8030,4969,9,-5,0
31999,0.02,3354,8001,4927,10,-4,1
32255,0.02,3365,8007,4952,9,-5,1
32513,0.02015625,3414,7993,4947,8,-5,1
32767,0.01984375,3408,7998,4968,9,-5,1
33023,0.02,3452,7965,4926,9,-5,0
33277,0.01984375,3475,7949,4970,9,-5,1
33534,0.020078125,3501,7937,4927,9,-6,0
33792,0.02015625,3532,7934,4916,9,-5,1
34050,0.02015625,3564,7918,4931,8,-5,1
34305,0.019921875000000002,3593,7922,4941,8,-6,1
34562,0.020078125,3594,7885,4947,8,-6,1
34820,0.02015625,3616,7886,4948,8,-6,2
35078,0.02015625,3628,7839,4916,9,-5,1
35334,0.02,3688,7819,4950,9,-6,1
35588,0.01984375,3683,7834,4939,9,-5,1
35844,0.02,3747,7836,4971,9,-5,1
36101,0.020078125,3790,7836,4934,9,-6,1
36358,0.020078125,3780,7812,4949,9,-5,1
36613,0.019921875000000002,3761,7810,4930,8,-6,1
36868,0.019921875000000002,3803,7800,4925,8,-6,1
37125,0.020078125,3842,7760,4956,9,-7,0
37381,0.02,3861,7760,4944,8,-6,1
37637,0.02,3869,7733,4929,9,-5,1
37895,0.02015625,3871,7712,4933,8,-6,1
38149,0.01984375,3928,7741,4936,8,-5,0
38404,0.019921875000000002,3962,7714,4944,9,-6,2
38662,0.02015625,3977,7681,4948,8,-6,1
38920,0.02015625,4012,7678,4961,9,-5,1
39175,0.019921875000000002,4048,7646,4942,8,-6,1
39433,0.02015625,4048,7690,4944,9,-6,1
39688,0.019921875000000002,4074,7655,4965,9,-6,1
39942,0.01984375,4080,7634,4961,9,-6,1
40197,0.019921875000000002,4128,7640,4952,8,-6,-1
40453,0.02,4150,7554,4922,9,-6,0
40707,0.01984375,4157,7616,4941,9,-6,1
40961,0.01984375,4215,7584,4933,8,-6,0
41218,0.020078125,4210,7558,4962,8,-6,1
41475,0.020078125,4241,7565,4933,8,-5,1
41732,0.020078125,4239,7548,4956,8,-6,1
41990,0.02015625,4289,7537,4928,8,-6,1
42245,0.019921875000000002,4320,7536,4976,9,-6,1
42503,0.02015625,4341,7502,4951,9,-6,0
42758,0.019921875000000002,4346,7496,4949,8,-6,1
43016,0.02015625,4387,7478,4931,9,-6,0
43273,0.020078125,4383,7443,4950,8,-6,1
43528,0.019921875000000002,4426,7449,4956,9,-7,1
43783,0.019921875000000002,4411,7431,4950,9,-6,1
44039,0.02,4459,7423,4942,8,-6,1
44295,0.02,4501,7412,4936,9,-6,1
44550,0.019921875000000002,4501,7374,4942,8,-7,1
44805,0.019921875000000002,4516,7369,4952,9,-7,2
45063,0.02015625,4559,7364,4953,8,-6,2
45320,0.020078125,4573,7360,4941,8,-7,1
45574,0.01984375,4624,7327,4948,8,-6,0
45831,0.020078125,4611,7317,4971,9,-7,2
46085,0.01984375,4651,7297,4958,8,-6,1
46341,0.02,4648,7261,4962,8,-7,1
46595,0.01984375,4704,7272,4942,9,-6,1
46852,0.020078125,4729,7272,4969,8,-6,1
47106,0.01984375,4720,7249,4932,8,-6,1
47361,0.019921875000000002,4781,7219,4935,8,-6,1
47615,0.01984375,4798,7203,4958,8,-6,1
47869,0.01984375,4791,7189,4950,8,-6,1
48123,0.01984375,4821,7146,4940,8,-7,1
48379,0.02,4844,7181,4954,8,-7,1
48637,0.02015625,4894,7111,4923,8,-7,1
48892,0.019921875000000002,4897,7125,4969,8,-7,1
49149,0.020078125,4916,7106,4964,8,-7,2
49405,0.02,4897,7078,4936,8,-7,0
49660,0.019921875000000002,4941,7070,4991,9,-7,1
49914,0.01984375,4960,7039,4953,7,-7,0
50171,0.020078125,4988,7053,4960,8,-7,1
50425,0.01984375,5009,7045,4954,7,-7,1
50681,0.02,5051,7017,4978,8,-7,1
50935,0.01984375,5093,7032,4937,7,-6,0
51192,0.020078125,5065,6979,4961,8,-7,0
51450,0.02015625,5096,6957,4990,8,-6,1
51705,0.019921875000000002,5125,6943,4916,7,-8,0
51960,0.019921875000000002,5131,6957,4955,8,-7,1
52216,0.02,5157,6928,4967,7,-7,1
52472,0.02,5183,6887,4938,8,-7,0
52727,0.019921875000000002,5213,6896,4965,8,-6,0
52982,0.019921875000000002,5259,6862,4972,8,-7,0
53236,0.01984375,5252,6830,4971,8,-7,1
53491,0.019921875000000002,5265,6827,4968,8,-6,1
53747,0.02,5312,6821,4969,7,-7,1
54004,0.020078125,5305,6813,4967,8,-6,2
54261,0.020078125,5333,6791,4948,8,-7,2
54517,0.02,5365,6765,4975,7,-8,1
54774,0.020078125,5381,6755,4938,8,-6,1
55030,0.02,5403,6727,4952,7,-7,1
55285,0.019921875000000002,5398,6707,4941,7,-7,0
55540,0.019921875000000002,5451,6710,4954,6,-8,1
55796,0.02,5421,6676,4941,8,-7,1
56051,0.019921875000000002,5491,6691,4955,8,-8,1
56308,0.020078125,5492,6638,4958,7,-7,1
56562,0.01984375,5528,6605,4957,8,-8,0
56816,0.01984375,5557,6615,4965,8,-7,1
57072,0.02,5605,6590,4947,8,-7,1
57326,0.01984375,5569,6610,4964,7,-7,1
57580,0.01984375,5601,6565,4940,8,-6,1
57835,0.019921875000000002,5619,6531,4953,7,-7,1
58089,0.01984375,5619,6534,4954,8,-8,1
58344,0.019921875000000002,5683,6517,4937,8,-7,0
58600,0.02,5684,6490,4969,7,-7,2
58855,0.019921875000000002,5723,6423,4956,7,-8,1
59113,0.02015625,5743,6431,4966,7,-8,2
59367,0.01984375,5736,6436,4933,8,-7,1
59624,0.020078125,5772,6390,4979,7,-8,1
59880,0.02,5774,6403,4965,8,-7,1
60137,0.020078125,5796,6407,4938,8,-7,0
60394,0.020078125,5856,6370,4976,7,-8,1
60648,0.01984375,5848,6357,4964,7,-7,1
60905,0.020078125,5871,6329,4958,7,-8,0
61160,0.019921875000000002,5884,6297,4955,6,-8,1
61417,0.020078125,5890,6285,4941,8,-8,1
61672,0.019921875000000002,5954,6283,4958,7,-8,1
61927,0.019921875000000002,5937,6236,4984,7,-6,1
62184,0.020078125,5984,6228,4977,7,-8,1
62442,0.02015625,5991,6204,4943,6,-8,0
62700,0.02015625,5997,6201,4963,6,-8,1
62957,0.020078125,6046,6143,4957,8,-7,1
63213,0.02,6035,6150,4975,7,-7,0
63469,0.02,6057,6129,4954,7,-8,0
63727,0.02015625,6065,6090,4968,6,-7,0
63982,0.019921875000000002,6081,6077,4984,7,-8,1
64240,0.02015625,6076,6067,4994,7,-8,1
64497,0.020078125,6140,6018,4939,7,-8,1
64754,0.020078125,6140,5999,4945,6,-8,1
65010,0.02,6157,6024,4982,7,-9,1
65268,0.02015625,6190,5993,4979,6,-7,0
65525,0.020078125,6212,5943,4951,8,-8,1
243,0.01984375,6222,5947,4985,7,-9,0
500,0.020078125,6245,5934,4942,7,-8,1
757,0.020078125,6234,5899,4954,7,-7,1
1015,0.02015625,6267,5890,4953,6,-8,0
1273,0.02015625,6274,5870,4977,6,-8,1
1531,0.02015625,6314,5847,4944,6,-8,1
1785,0.01984375,6294,5832,4984,7,-8,0
2042,0.020078125,6343,5782,4931,7,-8,1
2300,0.02015625,6342,5765,4964,6,-8,1
2558,0.02015625,6385,5769,4990,6,-8,1
2814,0.02,6417,5724,4962,7,-8,1
3072,0.02015625,6412,5719,4971,7,-8,1
3330,0.02015625,6423,5712,5011,6,-8,0
3584,0.01984375,6459,5684,4978,7,-8,1
3842,0.02015625,6433,5686,4973,7,-9,0
4099,0.020078125,6487,5641,4972,7,-9,1
4355,0.02,6503,5618,4945,7,-9,1
4609,0.01984375,6497,5601,4966,7,-8,0
4867,0.02015625,6529,5598,4976,6,-8,0
5122,0.019921875000000002,6560,5531,4979,7,-7,0
5378,0.02,6569,5564,4986,6,-8,1
5633,0.019921875000000002,6592,5505,4967,6,-8,1
5891,0.02015625,6601,5470,4983,7,-9,1
6147,0.02,6599,5458,4961,7,-9,1
6401,0.01984375,6630,5455,4967,7,-8,0
6655,0.01984375,6634,5422,4950,7,-8,2
6913,0.02015625,6646,5412,4952,6,-8,0
7168,0.019921875000000002,6692,5416,4963,7,-8,1
7425,0.020078125,6696,5332,4979,6,-9,1
7679,0.01984375,6713,5336,4979,6,-8,0
7937,0.02015625,6728,5351,4987,6,-9,1
8194,0.020078125,6755,5301,4969,6,-8,0
8449,0.019921875000000002,6762,5293,4950,6,-9,1
8707,0.02015625,6781,5279,4978,6,-8,0
8962,0.019921875000000002,6794,5240,4963,7,-9,0
9220,0.02015625,6809,5205,4987,7,-8,2
9476,0.02,6819,5192,4953,6,-9,0
9732,0.02,6835,5167,4953,7,-9,2
9986,0.01984375,6859,5148,4952,7,-8,1
10241,0.019921875000000002,6862,5128,4954,7,-8,1
10495,0.01984375,6861,5088,4982,7,-8,0
10753,0.02015625,6918,5096,4947,6,-8,1
11007,0.01984375,6901,5054,4967,6,-9,1
11261,0.01984375,6944,5043,4967,6,-8,0
11515,0.01984375,6967,5014,4973,7,-9,0
11773,0.02015625,6979,4991,4975,6,-8,1
12031,0.02015625,6998,4965,4941,6,-8,1
12288,0.020078125,6992,4956,4985,7,-9,1
12542,0.01984375,7032,4925,4956,6,-8,1
12798,0.02,7039,4897,4995,6,-9,1
13056,0.02015625,7064,4856,4953,5,-9,0
13310,0.01984375,7060,4866,4964,6,-9,1
13567,0.020078125,7088,4822,4971,6,-8,0
13821,0.01984375,7105,4794,4995,6,-9,1
14079,0.02015625,7107,4797,4968,6,-8,1
14335,0.02,7116,4746,4958,5,-8,2
14593,0.02015625,7161,4717,4985,7,-9,1
14849,0.02,7124,4722,4958,6,-9,1
15106,0.020078125,7184,4683,4957,5,-9,1
15364,0.02015625,7160,4679,4968,5,-9,1
15619,0.019921875000000002,7206,4647,4984,5,-9,1
15876,0.020078125,7204,4632,4963,6,-8,-1
16132,0.02,7243,4557,4966,6,-9,0
16388,0.02,7223,4595,4946,6,-9,0
16645,0.020078125,7245,4541,4988,6,-10,1
16900,0.019921875000000002,7255,4552,4955,6,-9,0
17154,0.01984375,7271,4497,4956,6,-9,0
17410,0.02,7290,4458,4964,5,-9,2
17668,0.02015625,7310,4466,4949,5,-9,0
17922,0.01984375,7336,4420,4972,5,-9,0
18177,0.019921875000000002,7332,4411,4965,6,-9,1
18434,0.020078125,7343,4403,4973,5,-9,2
18690,0.02,7343,4379,4948,6,-8,1
18947,0.020078125,7379,4335,4977,5,-9,1
19203,0.02,7393,4308,4965,5,-9,1
19461,0.02015625,7407,4311,4978,6,-9,1
19719,0.02015625,7408,4305,4970,5,-9,1
19975,0.02,7408,4265,4976,5,-8,1
20231,0.02,7424,4251,4987,5,-8,1
20486,0.019921875000000002,7455,4190,4986,6,-9,0
20742,0.02,7470,4175,4958,5,-9,-1
21000,0.02015625,7484,4145,4997,5,-9,1
21256,0.02,7496,4139,4971,6,-10,1
21513,0.020078125,7520,4114,5007,5,-10,0
21769,0.02,7529,4087,4980,5,-9,0
22026,0.020078125,7549,4098,4984,6,-9,0
22283,0.020078125,7535,4015,4957,6,-9,1
22539,0.02,7552,4004,4993,5,-9,1
22797,0.02015625,7563,3961,4949,5,-9,0
23055,0.02015625,7580,3959,4946,5,-9,1
23309,0.01984375,7576,3936,4994,5,-9,1
23564,0.019921875000000002,7596,3916,4982,5,-9,1
23822,0.02015625,7618,3896,4992,5,-10,2
24078,0.02,7633,3834,4969,5,-9,1
24333,0.019921875000000002,7662,3820,4968,5,-9,1
24590,0.020078125,7666,3814,4987,5,-9,1
24847,0.020078125,7667,3798,4988,5,-10,1
25101,0.01984375,7675,3764,5013,5,-9,1
25355,0.01984375,7689,3772,4974,5,-10,1
25613,0.02015625,7702,3725,4985,6,-9,1
25870,0.020078125,7751,3693,4970,5,-10,1
26125,0.019921875000000002,7716,3664,4980,5,-10,0
26383,0.02015625,7736,3646,4986,4,-9,0
26637,0.01984375,7736,3598,5000,5,-9,1
26895,0.02015625,7797,3562,4970,4,-10,0
27149,0.01984375,7761,3544,4986,5,-9,1
27406,0.020078125,7786,3532,5013,5,-10,0
27664,0.02015625,7762,3513,4980,4,-8,1
27921,0.020078125,7809,3473,4967,5,-9,0
28178,0.020078125,7806,3462,4978,4,-10,1
28433,0.019921875000000002,7821,3446,4998,5,-10,1
28688,0.019921875000000002,7839,3405,4994,5,-9,2
28943,0.019921875000000002,7828,3387,4982,5,-10,0
29197,0.01984375,7852,3350,4983,4,-10,1
29452,0.019921875000000002,7864,3344,5015,5,-9,0
29707,0.019921875000000002,7852,3334,4969,4,-9,1
29964,0.020078125,7868,3280,5001,4,-10,1
30219,0.019921875000000002,7899,3250,4959,4,-9,1
30473,0.01984375,7886,3233,4993,3,-9,0
30730,0.020078125,7917,3212,4999,5,-11,0
30986,0.02,7924,3180,4990,5,-9,1
31241,0.019921875000000002,7904,3151,4990,4,-9,1
31498,0.020078125,7943,3086,4964,5,-10,0
31753,0.019921875000000002,7969,3107,5000,5,-9,1
32010,0.020078125,7971,3115,4998,4,-9,1
32264,0.01984375,7988,3049,5001,5,-8,0
32520,0.02,7971,3025,4977,4,-11,1
32776,0.02,7994,2996,5013,4,-9,1
33031,0.019921875000000002,8010,2982,5005,4,-9,1
33288,0.020078125,8002,2958,5018,4,-9,1
33543,0.019921875000000002,8033,2926,4949,4,-11,2
33800,0.020078125,8027,2915,4971,3,-9,1
34055,0.019921875000000002,8026,2876,5026,5,-9,1
34311,0.02,8065,2846,4954,4,-9,0
34568,0.020078125,8048,2812,5008,4,-9,1
34826,0.02015625,8059,2800,4967,3,-9,1
35081,0.019921875000000002,8087,2794,5009,4,-10,1
35337,0.02,8115,2767,5002,4,-10,1
35593,0.02,8069,2715,4984,5,-10,0
35851,0.02015625,8101,2682,4986,4,-10,1
36109,0.02015625,8079,2659,4996,4,-10,1
36366,0.020078125,8127,2640,4956,4,-10,1
36624,0.02015625,8105,2597,4979,4,-10,1
36878,0.01984375,8120,2603,4990,4,-10,0
37135,0.020078125,8139,2556,4951,4,-10,2
37393,0.02015625,8116,2514,5003,5,-10,0
37650,0.020078125,8159,2474,4959,4,-9,1
37906,0.02,8159,2500,5018,4,-10,2
38164,0.02015625,8142,2472,4971,4,-10,0
38421,0.020078125,8158,2434,5002,4,-10,1
38679,0.02015625,8166,2415,4999,5,-10,1
38933,0.01984375,8199,2390,4979,4,-9,0
39190,0.020078125,8189,2352,5002,3,-11,0
39446,0.02,8183,2305,4985,3,-10,0
39704,0.02015625,8203,2318,4997,4,-10,1
39962,0.02015625,8221,2280,4974,4,-11,1
40220,0.02015625,8235,2241,5015,3,-10,1
40475,0.019921875000000002,8229,2217,4989,4,-9,1
40731,0.02,8249,2182,4999,3,-9,2
40985,0.01984375,8242,2133,4980,4,-9,1
41243,0.02015625,8265,2146,5006,4,-9,1
41498,0.019921875000000002,8271,2108,4979,4,-10,1
41755,0.020078125,8265,2077,4989,4,-9,0
42011,0.02,8267,2086,4985,3,-9,1
42269,0.02015625,8275,2027,5005,3,-9,1
42527,0.02015625,8286,2008,4986,4,-10,0
42784,0.020078125,8298,1988,4996,4,-10,1
43041,0.020078125,8294,1945,4984,4,-11,1
43295,0.01984375,8275,1924,4983,2,-10,1
43553,0.02015625,8275,1911,5011,4,-10,1
43807,0.01984375,8332,1897,5006,3,-10,1
44063,0.02,8291,1852,5024,4,-9,1
44318,0.019921875000000002,8323,1824,4977,3,-9,1
44573,0.019921875000000002,8315,1806,4988,3,-10,1
44831,0.02015625,8336,1786,4994,3,-10,2
45086,0.019921875000000002,8347,1748,4966,3,-9,1
45342,0.02,8317,1726,4982,4,-10,1
45597,0.019921875000000002,8369,1670,4975,3,-9,0
45855,0.02015625,8331,1669,4981,3,-11,0
46112,0.020078125,8361,1644,4979,4,-10,0
46368,0.02,8389,1606,4982,3,-9,2
46622,0.01984375,8359,1575,4992,3,-10,1
46876,0.01984375,8393,1567,4986,3,-10,1
47131,0.019921875000000002,8390,1520,4976,2,-9,1
47387,0.02,8410,1487,4995,4,-10,0
47645,0.02015625,8410,1455,4991,3,-10,0
47899,0.01984375,8392,1447,4976,3,-10,0
48155,0.02,8393,1415,4985,3,-10,0
48410,0.019921875000000002,8414,1408,4984,3,-10,1
48664,0.01984375,8431,1367,4965,3,-9,1
48921,0.020078125,8427,1322,4969,3,-11,1
49178,0.020078125,8435,1276,4972,2,-10,1
49436,0.02015625,8441,1292,4999,3,-10,0
49692,0.02,8437,1234,5004,3,-10,1
49947,0.019921875000000002,8434,1181,4996,3,-10,1
50205,0.02015625,8431,1179,4990,3,-10,1
50460,0.019921875000000002,8451,1153,4995,3,-11,1
50717,0.020078125,8430,1136,4979,3,-9,0
50975,0.02015625,8425,1095,5018,2,-10,1
51229,0.01984375,8432,1084,5029,3,-10,1
51487,0.02015625,8437,1034,5008,3,-9,1
51742,0.019921875000000002,8450,1044,4999,2,-11,1
51998,0.02,8472,988,5002,3,-10,1
52253,0.019921875000000002,8449,954,4985,3,-10,0
52507,0.01984375,8435,977,5005,3,-9,1
52764,0.020078125,8461,921,4987,4,-10,1
53020,0.02,8475,881,5016,2,-10,1
53276,0.02,8476,871,4993,2,-10,1
53532,0.02,8496,840,4982,2,-9,1
53789,0.020078125,8484,811,5002,2,-10,1
54047,0.02015625,8492,772,4981,2,-9,0
54303,0.02,8485,739,4984,2,-10,1
54557,0.01984375,8483,724,4972,3,-10,1
54812,0.019921875000000002,8462,709,5004,2,-10,1
55068,0.02,8515,706,4969,3,-10,1
55322,0.01984375,8504,635,5001,2,-10,1
55577,0.019921875000000002,8510,624,4992,3,-10,1
55832,0.019921875000000002,8484,580,4986,2,-10,1
56090,0.02015625,8493,589,5015,2,-10,2
56346,0.02,8497,542,4989,2,-11,1
56604,0.02015625,8487,559,4978,1,-10,2
56860,0.02,8502,494,4967,2,-11,0
57116,0.02,8504,425,4975,2,-10,1
57374,0.02015625,8508,444,5006,3,-10,1
57631,0.020078125,8513,406,4989,2,-10,1
57886,0.019921875000000002,8505,366,4985,1,-9,1
58141,0.019921875000000002,8495,361,4987,1,-9,1
58398,0.020078125,8503,322,5012,2,-11,1
58652,0.01984375,8503,322,4995,1,-10,2
58906,0.01984375,8534,294,4980,2,-10,1
59160,0.01984375,8493,229,4985,2,-10,1
59417,0.020078125,8492,207,4984,2,-9,1
59673,0.02,8502,143,4969,2,-10,0
59927,0.01984375,8538,175,4996,2,-10,1
60184,0.020078125,8538,135,5007,2,-11,1
60441,0.020078125,8510,64,4964,1,-10,1
60698,0.020078125,8518,103,4977,2,-10,0
60952,0.01984375,8516,22,5017,1,-9,1
61210,0.02015625,8531,18,4996,1,-10,1
61464,0.01984375,8504,-10,4987,3,-10,2
61720,0.02,8513,-32,4976,1,-10,2
61976,0.02,8519,-43,5006,2,-10,2
62231,0.019921875000000002,8508,-103,4978,3,-10,1
62486,0.019921875000000002,8534,-108,5026,1,-10,1
62740,0.01984375,8485,-130,4992,2,-9,1
62996,0.02,8508,-172,5011,1,-10,1
63253,0.020078125,8520,-232,4978,2,-10,0
63508,0.019921875000000002,8511,-228,5008,1,-10,1
63764,0.02,8511,-247,4978,2,-9,1
64022,0.02015625,8514,-285,4984,1,-9,1
64277,0.019921875000000002,8498,-318,5000,1,-10,1
64532,0.019921875000000002,8524,-317,5012,1,-10,1
64786,0.01984375,8503,-383,4990,1,-10,1
65042,0.02,8526,-390,5034,1,-10,1
65297,0.019921875000000002,8511,-414,5028,1,-10,1
19,0.02015625,8482,-437,5016,1,-10,0
274,0.019921875000000002,8486,-460,4990,1,-10,1
531,0.020078125,8496,-492,4980,1,-10,1
785,0.01984375,8520,-540,5012,1,-9,0
1040,0.019921875000000002,8520,-568,5028,1,-10,1
1294,0.01984375,8510,-570,4997,1,-10,1
1550,0.02,8477,-625,5001,2,-9,1
1804,0.01984375,8499,-629,4988,1,-10,0
2058,0.01984375,8498,-665,5008,1,-10,1
2314,0.02,8490,-689,4987,1,-10,0
2570,0.02,8490,-732,4990,0,-9,1
2825,0.019921875000000002,8495,-720,4995,2,-10,1
3081,0.02,8479,-772,5011,1,-9,1
3337,0.02,8486,-818,5005,1,-10,0
3594,0.020078125,8520,-836,4976,1,-10,1
3850,0.02,8486,-849,4989,1,-10,0
4108,0.02015625,8461,-905,5014,1,-9,1
4363,0.019921875000000002,8484,-940,5011,1,-10,1
4617,0.01984375,8455,-964,4988,1,-10,0
4873,0.02,8452,-980,4993,0,-11,0
5127,0.01984375,8465,-1014,4997,1,-11,1
5384,0.020078125,8476,-1030,4990,1,-10,1
5639,0.019921875000000002,8464,-1056,5006,1,-9,1
5894,0.019921875000000002,8455,-1079,5009,0,-9,1
6150,0.02,8432,-1087,5032,1,-9,1
6404,0.01984375,8423,-1160,5003,0,-10,1
6659,0.019921875000000002,8454,-1182,4992,1,-10,1
6917,0.02015625,8434,-1179,5016,1,-9,0
7174,0.020078125,8454,-1227,5003,1,-10,1
7430,0.02,8421,-1262,5012,1,-9,1
7686,0.02,8409,-1254,4994,1,-10,2
7942,0.02,8413,-1301,5001,0,-10,2
8200,0.02015625,8415,-1317,4958,0,-10,0
8458,0.02015625,8435,-1355,4997,0,-11,0
8714,0.02,8429,-1409,4988,0,-9,1
8972,0.02015625,8402,-1385,4988,1,-11,1
9226,0.01984375,8400,-1447,4996,0,-10,1
9481,0.019921875000000002,8393,-1450,5006,0,-10,1
9736,0.019921875000000002,8405,-1455,5014,1,-8,1
9993,0.020078125,8400,-1503,4985,0,-10,1
10250,0.020078125,8386,-1538,5016,1,-10,0
10506,0.02,8401,-1556,4976,0,-10,1
10761,0.019921875000000002,8392,-1590,5009,0,-10,1
11017,0.02,8374,-1622,4972,0,-10,1
11272,0.019921875000000002,8365,-1641,4984,-1,-10,1
11528,0.02,8389,-1664,4978,0,-10,1
11783,0.019921875000000002,8367,-1716,5001,0,-9,0
12041,0.02015625,8349,-1770,4991,0,-10,1
12298,0.020078125,8348,-1790,5003,0,-10,0
12552,0.01984375,8344,-1788,5005,0,-10,0
12810,0.02015625,8316,-1819,5000,0,-10,1
13067,0.020078125,8318,-1841,5004,0,-9,0
13322,0.019921875000000002,8326,-1858,5000,0,-11,1
13578,0.02,8305,-1917,4989,-1,-10,1
13832,0.01984375,8302,-1922,4973,0,-10,1
14086,0.01984375,8299,-1929,4978,-1,-9,2
14342,0.02,8311,-1972,4968,-1,-10,1
14599,0.020078125,8281,-1997,5002,0,-10,1
14854,0.019921875000000002,8292,-2027,5017,-1,-8,1
15109,0.019921875000000002,8292,-2044,5029,0,-11,2
15367,0.02015625,8275,-2077,4982,0,-10,1
15625,0.02015625,8269,-2076,5031,0,-10,1
15881,0.02,8284,-2137,4995,0,-10,1
16135,0.01984375,8237,-2148,5030,0,-9,0
16392,0.020078125,8258,-2199,4998,0,-10,0
16649,0.020078125,8228,-2233,5008,1,-9,0
16907,0.02015625,8262,-2224,4978,-1,-9,1
17165,0.02015625,8214,-2256,4969,-1,-9,1
17422,0.020078125,8220,-2278,5016,0,-9,1
17676,0.01984375,8231,-2314,5003,-1,-10,0
17931,0.019921875000000002,8209,-2341,5023,-1,-9,1
18188,0.020078125,8203,-2362,4998,0,-9,0
18445,0.020078125,8201,-2373,4999,0,-9,0
18701,0.02,8199,-2445,4992,0,-10,1
18957,0.02,8191,-2452,5002,0,-10,1
19214,0.020078125,8172,-2501,4988,0,-10,0
19470,0.02,8146,-2505,5025,-1,-9,1
19724,0.01984375,8169,-2550,5016,-1,-9,0
19982,0.02015625,8157,-2551,4999,0,-10,0
20237,0.019921875000000002,8170,-2567,4990,0,-10,0
20492,0.019921875000000002,8154,-2634,5015,-1,-10,1
20746,0.01984375,8139,-2647,5012,-1,-10,1
21002,0.02,8143,-2636,5012,-1,-9,1
21260,0.02015625,8126,-2676,5007,-1,-10,0
21514,0.01984375,8112,-2711,5010,-1,-9,2
21769,0.019921875000000002,8099,-2741,5006,0,-10,1
22023,0.01984375,8078,-2774,5001,0,-9,1
22277,0.01984375,8076,-2755,4995,-1,-11,1
22534,0.020078125,8088,-2782,4981,0,-10,1
22789,0.019921875000000002,8040,-2822,5014,-1,-9,0
23046,0.020078125,8047,-2877,4974,-1,-9,0
23302,0.02,8053,-2900,5007,-1,-10,1
23559,0.020078125,8038,-2892,5003,-1,-9,1
23813,0.01984375,8041,-2930,4992,-1,-10,0
24068,0.019921875000000002,8017,-2954,5005,-2,-10,2
24324,0.02,8010,-3010,4998,-2,-9,1
24578,0.01984375,8023,-3025,5023,-1,-9,1
24834,0.02,8003,-3046,4999,0,-10,1
25090,0.02,7984,-3071,4996,-1,-10,0
25346,0.02,7975,-3120,4976,-1,-9,1
25602,0.02,7974,-3158,4982,0,-10,1
25859,0.020078125,7946,-3153,4993,-1,-9,1
26116,0.020078125,7931,-3176,4984,-1,-8,1
26370,0.01984375,7948,-3207,4973,-2,-9,0
26627,0.020078125,7917,-3234,4986,-2,-10,0
26885,0.02015625,7906,-3269,5010,-1,-10,1
27143,0.02015625,7905,-3287,5009,-1,-10,1
27398,0.019921875000000002,7886,-3321,5014,-1,-9,1
27655,0.020078125,7888,-3323,5016,-1,-9,1
27913,0.02015625,7881,-3350,5006,-1,-10,1
28168,0.019921875000000002,7910,-3390,5003,-2,-10,2
28426,0.02015625,7847,-3417,4978,-2,-10,1
28683,0.020078125,7889,-3441,4977,-1,-10,1
28940,0.020078125,7832,-3470,5000,-1,-10,1
29197,0.020078125,7823,-3505,5008,-2,-10,1
29454,0.020078125,7820,-3502,5001,-1,-9,1
29712,0.02015625,7818,-3525,4996,-2,-9,1
29970,0.02015625,7810,-3576,4989,-1,-9,0
30226,0.02,7788,-3615,4988,-1,-8,0
30482,0.02,7767,-3611,5029,-2,-10,2
30739,0.020078125,7755,-3626,4980,-2,-10,0
30997,0.02015625,7763,-3663,4998,-2,-9,1
31252,0.019921875000000002,7754,-3726,4990,-2,-9,1
31507,0.019921875000000002,7732,-3717,4994,-2,-9,0
31764,0.020078125,7715,-3734,5026,-2,-9,1
32022,0.02015625,7704,-3765,4997,-2,-9,1
32280,0.02015625,7697,-3804,4988,-1,-9,0
32534,0.01984375,7704,-3807,5011,-2,-9,1
32792,0.02015625,7650,-3838,5007,-1,-9,0
33049,0.020078125,7658,-3820,5015,-2,-9,0
33303,0.01984375,7627,-3891,5004,-3,-10,1
33557,0.01984375,7629,-3905,4984,-2,-10,2
33812,0.019921875000000002,7598,-3951,5009,-1,-9,1
34070,0.02015625,7612,-3975,4995,-3,-10,1
34327,0.020078125,7583,-3979,4983,-2,-9,2
34583,0.02,7592,-3990,4991,-2,-10,1
34840,0.020078125,7572,-4044,4984,-3,-10,0
35096,0.02,7573,-4082,4982,-1,-9,1
35354,0.02015625,7561,-4072,4980,-2,-10,2
35608,0.01984375,7515,-4122,4987,-3,-8,2
35863,0.019921875000000002,7519,-4151,4969,-2,-9,0
36118,0.019921875000000002,7517,-4149,5007,-2,-10,1
36376,0.02015625,7501,-4166,5014,-3,-10,0
36632,0.02,7472,-4192,5008,-2,-9,1
36889,0.020078125,7493,-4221,5003,-1,-9,1
37147,0.02015625,7450,-4241,5021,-2,-8,0
37401,0.01984375,7449,-4277,4991,-1,-9,1
37659,0.02015625,7437,-4330,4991,-2,-9,0
37913,0.01984375,7443,-4304,5010,-2,-9,0
38170,0.020078125,7396,-4364,4993,-3,-10,1
38427,0.020078125,7401,-4346,4992,-2,-9,1
38685,0.02015625,7395,-4384,5007,-2,-9,0
38939,0.01984375,7359,-4429,4985,-2,-8,0
39197,0.02015625,7362,-4459,4998,-3,-9,0
39454,0.020078125,7359,-4471,4993,-3,-9,1
39708,0.01984375,7334,-4457,5024,-3,-9,1
39964,0.02,7304,-4497,5008,-2,-9,2
40222,0.02015625,7306,-4540,5025,-2,-9,1
40478,0.02,7292,-4556,4982,-3,-9,0
40733,0.019921875000000002,7266,-4576,5000,-2,-10,1
40988,0.019921875000000002,7270,-4600,4991,-2,-8,1
41244,0.02,7237,-4635,5004,-3,-9,0
41502,0.02015625,7219,-4658,5000,-3,-9,1
41759,0.020078125,7233,-4680,5008,-3,-9,1
42016,0.020078125,7218,-4691,5011,-3,-9,1
42273,0.020078125,7181,-4735,5005,-2,-9,1
42530,0.020078125,7175,-4782,4999,-3,-9,2
42786,0.02,7144,-4784,4963,-3,-9,1
43043,0.020078125,7164,-4782,5003,-3,-8,1
43298,0.019921875000000002,7121,-4844,4996,-2,-8,1
43554,0.02,7107,-4859,5010,-4,-8,1
43809,0.019921875000000002,7110,-4867,5011,-3,-9,2
44067,0.02015625,7084,-4875,4966,-2,-8,1
44324,0.020078125,7082,-4901,4992,-3,-9,0
44580,0.02,7076,-4918,4991,-3,-9,1
44836,0.02,7029,-4950,5013,-3,-8,1
45092,0.02,7026,-4993,5017,-3,-8,1
45349,0.020078125,6998,-5010,5023,-3,-9,1
45604,0.019921875000000002,6997,-4971,5006,-3,-8,0
45862,0.02015625,6985,-5016,5000,-4,-9,2
46117,0.019921875000000002,6974,-5081,4992,-3,-8,1
46371,0.01984375,6969,-5084,4982,-4,-8,0
46628,0.020078125,6934,-5109,4985,-3,-9,1
46885,0.020078125,6938,-5127,5003,-3,-9,1
47140,0.019921875000000002,6913,-5153,4970,-3,-8,1
47397,0.020078125,6869,-5145,5001,-3,-8,1
47654,0.020078125,6864,-5171,5017,-3,-8,0
47911,0.020078125,6878,-5237,5006,-4,-10,1
48169,0.02015625,6831,-5277,5010,-2,-8,1
48427,0.02015625,6828,-5256,5018,-3,-8,1
48683,0.02,6820,-5293,5000,-2,-8,1
48938,0.019921875000000002,6821,-5319,5026,-3,-7,0
49192,0.01984375,6769,-5329,5008,-2,-9,1
49448,0.02,6780,-5346,4987,-2,-8,1
49705,0.020078125,6750,-5375,5000,-3,-8,0
49962,0.020078125,6715,-5412,5005,-3,-8,1
50216,0.01984375,6705,-5400,4997,-3,-8,0
50473,0.020078125,6686,-5429,4975,-3,-8,1
50730,0.020078125,6685,-5448,4994,-3,-9,1
50987,0.020078125,6652,-5482,5019,-3,-9,0
51243,0.02,6654,-5481,5007,-4,-8,1
51497,0.01984375,6625,-5544,5022,-5,-8,1
51753,0.02,6608,-5526,4991,-4,-8,1
52010,0.020078125,6591,-5596,4988,-3,-8,1
52266,0.02,6577,-5604,5026,-3,-8,1
52522,0.02,6553,-5624,5001,-3,-8,2
52778,0.02,6552,-5672,5006,-3,-8,1
53034,0.02,6529,-5658,5010,-4,-9,2
53289,0.019921875000000002,6501,-5677,4979,-3,-9,1
53546,0.020078125,6511,-5692,5009,-4,-7,0
53801,0.019921875000000002,6501,-5705,5010,-4,-8,1
54057,0.02,6461,-5745,4970,-3,-8,1
54313,0.02,6434,-5757,4987,-5,-8,1
54570,0.020078125,6422,-5800,5002,-4,-9,0
54828,0.02015625,6420,-5809,4994,-3,-8,1
55085,0.020078125,6385,-5833,4968,-3,-8,1
55339,0.01984375,6370,-5834,4977,-4,-9,2
55596,0.020078125,6368,-5898,4978,-4,-8,0
55851,0.019921875000000002,6366,-5881,5008,-4,-8,1
56105,0.01984375,6315,-5897,4976,-3,-8,1
56359,0.01984375,6285,-5941,4983,-4,-8,1
56617,0.02015625,6268,-5966,5000,-4,-8,2
56873,0.02,6264,-5948,4992,-4,-8,0
57128,0.019921875000000002,6268,-5990,5012,-4,-8,0
57382,0.01984375,6247,-6003,5006,-3,-7,1
57639,0.020078125,6189,-6038,4985,-3,-8,0
57896,0.020078125,6189,-6070,4999,-5,-8,1
58151,0.019921875000000002,6203,-6055,4994,-3,-9,0
58405,0.01984375,6160,-6120,5000,-4,-8,0
58660,0.019921875000000002,6143,-6107,5021,-4,-8,1
58917,0.020078125,6098,-6121,5009,-3,-8,1
59171,0.01984375,6091,-6144,5006,-4,-7,0
59426,0.019921875000000002,6096,-6159,5000,-4,-7,0
59680,0.01984375,6067,-6198,5027,-3,-8,1
59936,0.02,6048,-6214,5011,-4,-8,1
60190,0.01984375,6031,-6222,5001,-4,-7,0
60444,0.01984375,6012,-6250,5026,-4,-8,0
60698,0.01984375,5992,-6285,4992,-5,-8,1
60955,0.020078125,5946,-6267,4980,-4,-8,2
61211,0.02,5960,-6318,4986,-4,-8,1
61469,0.02015625,5949,-6333,5001,-4,-7,1
61724,0.019921875000000002,5906,-6367,4984,-4,-8,1
61979,0.019921875000000002,5907,-6378,4996,-4,-8,2
62234,0.019921875000000002,5886,-6375,5026,-5,-8,1
62492,0.02015625,5839,-6394,4983,-4,-7,1
62748,0.02,5805,-6431,5008,-4,-9,1
63003,0.019921875000000002,5816,-6448,5014,-4,-8,1
63260,0.020078125,5821,-6430,5004,-4,-7,0
63516,0.02,5784,-6484,5004,-4,-7,1
63770,0.01984375,5709,-6489,5009,-4,-8,2
64027,0.020078125,5740,-6504,5015,-4,-8,0
64281,0.01984375,5708,-6517,4994,-4,-7,1
64535,0.01984375,5691,-6540,5006,-3,-8,1
64792,0.020078125,5688,-6542,5002,-4,-7,1
65048,0.02,5650,-6579,5016,-3,-7,1
65303,0.019921875000000002,5635,-6594,4997,-4,-8,1
21,0.01984375,5599,-6627,5000,-3,-8,0
277,0.02,5587,-6614,4956,-5,-6,1
534,0.020078125,5559,-6657,4999,-4,-6,1
789,0.019921875000000002,5547,-6663,4988,-5,-8,0
1045,0.02,5522,-6710,5003,-5,-9,0
1300,0.019921875000000002,5508,-6719,5021,-5,-7,1
1558,0.02015625,5494,-6741,4997,-5,-7,1
1815,0.020078125,5460,-6731,5004,-5,-7,1
2070,0.019921875000000002,5440,-6762,4989,-5,-8,1
2326,0.02,5441,-6791,5036,-4,-7,1
2584,0.02015625,5440,-6810,4959,-5,-7,1
2839,0.019921875000000002,5396,-6796,5003,-4,-8,0
3093,0.01984375,5395,-6832,4988,-5,-7,0
3348,0.019921875000000002,5331,-6873,4995,-5,-7,1
3605,0.020078125,5333,-6879,4996,-4,-7,1
3863,0.02015625,5325,-6885,5009,-5,-8,1
4118,0.019921875000000002,5298,-6894,5004,-5,-7,1
4372,0.01984375,5273,-6928,5014,-5,-7,2
4626,0.01984375,5259,-6942,5002,-5,-8,0
4882,0.02,5224,-6958,5001,-4,-7,0
5136,0.01984375,5208,-6975,4995,-5,-6,0
5390,0.01984375,5176,-6987,4985,-4,-7,1
5647,0.020078125,5157,-7005,4995,-5,-7,1
5905,0.02015625,5151,-7039,4981,-6,-7,1
6160,0.019921875000000002,5126,-7058,5024,-5,-7,1
6416,0.02,5082,-7061,4999,-3,-7,2
6672,0.02,5094,-7064,4982,-4,-8,2
6929,0.020078125,5057,-7126,4991,-4,-7,1
7187,0.02015625,5020,-7122,4995,-5,-7,1
7445,0.02015625,4998,-7114,4997,-6,-8,1
7700,0.019921875000000002,5019,-7126,4970,-6,-6,1
7958,0.02015625,4985,-7164,5001,-4,-7,1
8212,0.01984375,4947,-7159,4996,-4,-7,0
8470,0.02015625,4954,-7192,4988,-5,-7,1
8724,0.01984375,4902,-7199,4999,-6,-6,1
8978,0.01984375,4889,-7235,4989,-5,-6,1
9232,0.01984375,4870,-7240,4989,-5,-6,0
9486,0.01984375,4817,-7275,4979,-5,-7,0
9742,0.02,4785,-7277,5014,-5,-7,0
9999,0.020078125,4770,-7294,4995,-4,-6,1
10256,0.020078125,4760,-7292,4991,-5,-6,0
10510,0.01984375,4745,-7289,4973,-5,-7,1
10765,0.019921875000000002,4703,-7314,5005,-5,-7,1
11019,0.01984375,4691,-7343,5028,-5,-7,1
11273,0.01984375,4662,-7371,4980,-5,-6,1
11530,0.020078125,4667,-7385,4987,-5,-7,1
11787,0.020078125,4644,-7389,4998,-4,-7,1
12042,0.019921875000000002,4623,-7420,4978,-5,-7,1
12297,0.019921875000000002,4602,-7394,4999,-5,-7,1
12555,0.02015625,4570,-7425,5026,-4,-6,0
12811,0.02,4540,-7444,4983,-5,-6,0
13066,0.019921875000000002,4543,-7456,4969,-5,-6,1
13324,0.02015625,4497,-7460,4997,-6,-7,1
13578,0.01984375,4497,-7482,5017,-5,-6,0
13833,0.019921875000000002,4483,-7493,4988,-5,-6,0
14090,0.020078125,4444,-7530,5000,-5,-6,0
14346,0.02,4409,-7501,5015,-5,-6,1
14600,0.01984375,4405,-7556,4993,-6,-6,2
14858,0.02015625,4366,-7590,5003,-6,-7,1
15113,0.019921875000000002,4346,-7579,4984,-5,-6,0
15370,0.020078125,4314,-7581,4991,-6,-6,-1
15625,0.019921875000000002,4290,-7609,4996,-5,-6,0
15882,0.020078125,4282,-7611,4968,-4,-7,1
16140,0.02015625,4256,-7623,4986,-5,-7,1
16397,0.020078125,4219,-7651,5000,-5,-6,1
16655,0.02015625,4205,-7668,4989,-5,-6,1
16911,0.02,4184,-7692,4968,-5,-6,1
17165,0.01984375,4169,-7701,4972,-4,-6,1
17421,0.02,4120,-7703,4975,-5,-6,1
17677,0.02,4105,-7724,4986,-7,-6,1
17934,0.020078125,4100,-7750,5010,-5,-5,1
18189,0.019921875000000002,4079,-7757,5003,-6,-7,0
18446,0.020078125,4040,-7760,4998,-6,-7,1
18702,0.02,4030,-7777,4992,-5,-6,1
18959,0.020078125,4010,-7785,4993,-5,-6,1
19215,0.02,3971,-7786,4976,-5,-6,1
19470,0.019921875000000002,3942,-7794,4960,-5,-6,1
19725,0.019921875000000002,3915,-7813,5021,-6,-5,1
19983,0.02015625,3905,-7824,5005,-6,-6,0
20237,0.01984375,3876,-7841,5002,-5,-6,0
20492,0.019921875000000002,3829,-7820,4996,-5,-6,1
20748,0.02,3835,-7866,5008,-4,-6,0
21002,0.01984375,3790,-7851,5007,-6,-6,0
21260,0.02015625,3793,-7893,4987,-5,-6,1
21515,0.019921875000000002,3756,-7887,5016,-5,-5,1
21770,0.019921875000000002,3721,-7901,4994,-6,-6,1
22025,0.019921875000000002,3700,-7901,4998,-5,-6,1
22279,0.01984375,3669,-7935,4991,-6,-6,1
22536,0.020078125,3666,-7940,4982,-5,-6,-1
22792,0.02,3628,-7943,4966,-5,-5,0
23047,0.019921875000000002,3611,-7990,5015,-6,-6,1
23305,0.02015625,3597,-7995,4981,-5,-6,0
23562,0.020078125,3562,-8016,5015,-5,-6,0
23818,0.02,3510,-8022,5006,-4,-5,1
24074,0.02,3508,-8031,5021,-6,-4,1
24331,0.020078125,3464,-8038,4980,-6,-5,2
24585,0.01984375,3449,-8036,4999,-6,-5,0
24843,0.02015625,3443,-8043,4995,-5,-5,1
25098,0.019921875000000002,3418,-8079,4981,-6,-5,1
25352,0.01984375,3378,-8090,4965,-6,-6,0
25608,0.02,3362,-8103,4995,-5,-6,1
25866,0.02015625,3351,-8105,4978,-5,-5,1
26123,0.020078125,3332,-8134,5010,-5,-5,1
26378,0.019921875000000002,3295,-8120,4995,-6,-5,0
26633,0.019921875000000002,3261,-8095,4980,-6,-6,1
26889,0.02,3233,-8139,5002,-6,-5,1
27144,0.019921875000000002,3236,-8145,5037,-5,-5,0
27402,0.02015625,3194,-8136,5014,-5,-5,0
27657,0.019921875000000002,3178,-8186,4966,-6,-5,1
27912,0.019921875000000002,3153,-8170,4974,-6,-6,0
28166,0.01984375,3132,-8199,5001,-5,-5,1
28423,0.020078125,3086,-8226,4990,-6,-5,2
28677,0.01984375,3048,-8202,4973,-5,-5,1
28935,0.02015625,3032,-8229,5002,-5,-5,0
29193,0.02015625,3026,-8191,4989,-5,-5,1
29447,0.01984375,3005,-8231,4976,-6,-5,1
29701,0.01984375,2994,-8220,4990,-6,-4,1
29959,0.02015625,2931,-8272,4995,-6,-5,1
30213,0.01984375,2932,-8246,4958,-6,-5,0
30469,0.02,2886,-8288,4988,-5,-4,0
30727,0.02015625,2879,-8276,4993,-6,-5,2
30981,0.01984375,2862,-8310,4999,-5,-5,1
31238,0.020078125,2823,-8300,4989,-7,-5,0
31493,0.019921875000000002,2778,-8291,4994,-6,-5,1
31749,0.02,2785,-8333,4987,-5,-6,1
32007,0.02015625,2738,-8332,4979,-6,-4,1
32264,0.020078125,2724,-8309,4978,-5,-5,2
32519,0.019921875000000002,2706,-8343,4985,-6,-5,1
32777,0.02015625,2669,-8361,4982,-5,-4,0
33033,0.02,2634,-8359,5009,-5,-5,1
33287,0.01984375,2604,-8377,5010,-7,-5,0
33542,0.019921875000000002,2597,-8372,4992,-5,-6,1
33797,0.019921875000000002,2563,-8379,4966,-6,-4,1
34054,0.020078125,2518,-8398,4969,-6,-4,1
34312,0.02015625,2508,-8392,5006,-7,-4,1
34566,0.01984375,2487,-8433,4999,-7,-5,1
34823,0.020078125,2476,-8432,4975,-6,-4,2
35081,0.02015625,2417,-8426,4969,-5,-5,0
35339,0.02015625,2405,-8439,4990,-6,-4,0
35596,0.020078125,2400,-8447,5002,-6,-5,1
35851,0.019921875000000002,2382,-8451,4982,-6,-4,0
36105,0.01984375,2326,-8453,4957,-5,-4,1
36363,0.02015625,2320,-8471,4968,-6,-5,1
36619,0.02,2298,-8454,4990,-6,-4,1
36874,0.019921875000000002,2267,-8489,4988,-7,-5,1
37131,0.020078125,2248,-8506,4994,-6,-4,2
37388,0.020078125,2221,-8486,5013,-6,-5,0
37646,0.02015625,2179,-8540,4981,-6,-4,1
37904,0.02015625,2148,-8503,4994,-6,-4,0
38162,0.02015625,2115,-8530,4985,-7,-4,0
38416,0.01984375,2108,-8519,4989,-6,-5,0
38670,0.01984375,2074,-8539,4984,-5,-4,0
38925,0.019921875000000002,2064,-8530,4971,-6,-4,0
39182,0.020078125,2035,-8542,4980,-6,-4,1
39438,0.02,2001,-8550,4988,-7,-5,0
39696,0.02015625,1984,-8577,4985,-6,-4,0
39954,0.02015625,1949,-8540,5008,-6,-4,0
40212,0.02015625,1935,-8574,4991,-6,-4,1
40466,0.01984375,1902,-8570,4974,-7,-3,2
40723,0.020078125,1879,-8603,4971,-6,-3,0
40981,0.02015625,1844,-8587,4995,-6,-5,1
41239,0.02015625,1837,-8597,4988,-6,-4,1
41494,0.019921875000000002,1800,-8594,5004,-7,-4,1
41751,0.020078125,1759,-8595,4979,-7,-4,1
42007,0.02,1756,-8607,4988,-6,-4,0
42261,0.01984375,1720,-8623,5007,-5,-4,1
42516,0.019921875000000002,1688,-8643,4978,-6,-4,1
42771,0.019921875000000002,1677,-8639,4971,-5,-3,1
43029,0.02015625,1635,-8636,4981,-6,-2,1
43283,0.01984375,1621,-8665,4974,-6,-4,-1
43537,0.01984375,1595,-8616,4951,-5,-5,1
43793,0.02,1558,-8685,4987,-6,-4,1
44049,0.02,1526,-8683,4991,-5,-3,0
44305,0.02,1483,-8672,4956,-6,-3,0
44559,0.01984375,1491,-8655,4972,-6,-5,1
44815,0.02,1453,-8667,4986,-6,-4,1
45073,0.02015625,1442,-8675,4985,-6,-4,1
45327,0.01984375,1392,-8673,4980,-6,-4,1
45584,0.020078125,1350,-8677,4983,-6,-4,2
45838,0.01984375,1342,-8700,4964,-7,-3,1
46093,0.019921875000000002,1331,-8705,5006,-6,-4,2
46351,0.02015625,1305,-8663,4983,-6,-4,0
46606,0.019921875000000002,1265,-8683,4988,-6,-4,1
46862,0.02,1258,-8697,4981,-7,-3,-1
47117,0.019921875000000002,1222,-8669,4956,-6,-3,1
47374,0.020078125,1205,-8705,4981,-6,-3,2
47630,0.02,1166,-8713,4953,-6,-3,0
47886,0.02,1104,-8719,4999,-6,-3,0
48144,0.02015625,1117,-8713,4951,-6,-3,1
48400,0.02,1093,-8717,4986,-6,-4,0
48656,0.02,1046,-8732,4984,-6,-3,1
48914,0.02015625,1018,-8730,4965,-6,-3,-1
49170,0.02,1041,-8728,4969,-5,-3,1
49428,0.02015625,971,-8715,4976,-6,-3,1
49685,0.020078125,951,-8726,5015,-6,-3,1
49943,0.02015625,945,-8755,4973,-7,-4,1
50199,0.02,898,-8722,4985,-7,-3,1
50455,0.02,889,-8751,4970,-6,-4,1
50709,0.01984375,879,-8751,4965,-6,-3,0
50963,0.01984375,829,-8740,4972,-6,-3,1
51217,0.01984375,784,-8775,5005,-6,-3,1
51474,0.020078125,777,-8768,4980,-6,-3,1
51729,0.019921875000000002,733,-8784,4978,-6,-4,1
51984,0.019921875000000002,727,-8729,4970,-7,-3,1
52241,0.020078125,689,-8781,4973,-7,-2,0
52496,0.019921875000000002,659,-8793,4967,-6,-3,1
52750,0.01984375,654,-8762,4990,-6,-3,1
53006,0.02,621,-8759,4985,-7,-3,1
53262,0.02,591,-8777,4992,-6,-2,1
53516,0.01984375,537,-8772,4966,-7,-3,1
53771,0.019921875000000002,533,-8750,4977,-5,-3,1
54026,0.019921875000000002,480,-8766,4967,-7,-2,1
54283,0.020078125,490,-8789,4974,-6,-2,2
54538,0.019921875000000002,452,-8756,4988,-6,-2,2
54792,0.01984375,450,-8769,4975,-6,-2,2
55047,0.019921875000000002,400,-8781,4975,-6,-3,1
55303,0.02,392,-8793,4975,-7,-2,1
55560,0.020078125,364,-8787,4982,-6,-2,1
55814,0.01984375,314,-8789,4980,-6,-3,2
56072,0.02015625,327,-8810,4955,-7,-3,1
56327,0.019921875000000002,269,-8791,4981,-7,-3,1
56582,0.019921875000000002,209,-8811,4956,-6,-2,1
56836,0.01984375,179,-8817,4983,-8,-2,0
57091,0.019921875000000002,192,-8809,4989,-5,-4,1
57347,0.02,126,-8789,4970,-6,-3,1
57604,0.020078125,105,-8778,4966,-7,-2,1
57861,0.020078125,128,-8778,4960,-6,-2,2
58117,0.02,80,-8794,4969,-6,-2,1
58371,0.01984375,41,-8805,4964,-7,-3,2
58626,0.019921875000000002,17,-8787,4935,-6,-2,1
58883,0.020078125,-4,-8805,4940,-6,-2,1
59140,0.020078125,-48,-8819,4975,-5,-2,0
59396,0.02,-57,-8798,4984,-6,-4,1
59652,0.02,-102,-8818,4968,-6,-3,1
59908,0.02,-102,-8796,4958,-7,-2,0
60166,0.02015625,-124,-8798,4969,-7,-2,1
60422,0.02,-187,-8788,4972,-7,-2,0
60678,0.02,-188,-8770,4992,-6,-2,0
60933,0.019921875000000002,-225,-8786,4958,-6,-1,1
61189,0.02,-267,-8813,4982,-6,-2,1
61446,0.020078125,-261,-8795,4959,-6,-3,2
61704,0.02015625,-302,-8782,4962,-7,-2,1
61961,0.020078125,-335,-8803,4972,-6,-1,1
62218,0.020078125,-344,-8778,4952,-7,-2,0
62475,0.020078125,-368,-8784,4971,-8,-1,0
62729,0.01984375,-376,-8808,4957,-7,-2,0
62984,0.019921875000000002,-450,-8806,4981,-6,-1,0
63239,0.019921875000000002,-457,-8803,4964,-7,-2,1
63496,0.020078125,-472,-8795,4984,-6,-2,0
63753,0.020078125,-522,-8755,4973,-6,-2,2
64007,0.01984375,-520,-8790,4964,-6,-2,0
64261,0.01984375,-560,-8755,4949,-7,-2,1
64517,0.02,-563,-8760,4982,-6,-2,0
64775,0.02015625,-608,-8766,4987,-6,-2,1
65029,0.01984375,-633,-8793,4979,-6,-2,0
65287,0.02015625,-675,-8747,4993,-6,-1,1
5,0.01984375,-685,-8774,4960,-7,-3,1
260,0.019921875000000002,-736,-8777,4950,-6,-1,2
517,0.020078125,-778,-8767,4952,-6,-1,0
774,0.020078125,-778,-8767,4991,-6,-1,-1
1032,0.02015625,-807,-8726,4987,-7,-2,0
1286,0.01984375,-807,-8751,4955,-6,-3,0
1540,0.01984375,-858,-8739,4937,-6,-1,0
1796,0.02,-882,-8748,4992,-6,-2,1
2052,0.02,-932,-8749,4959,-6,-1,1
2307,0.019921875000000002,-950,-8741,4988,-7,-1,1
2564,0.020078125,-966,-8764,4987,-7,-1,0
2819,0.019921875000000002,-1001,-8718,4981,-6,-1,1
3077,0.02015625,-1018,-8743,4979,-7,-1,1
3331,0.01984375,-1044,-8718,4966,-6,-1,1
3588,0.020078125,-1081,-8728,4965,-6,-1,2
3844,0.02,-1099,-8726,4962,-7,-2,1
4098,0.01984375,-1107,-8720,4958,-6,0,1
4355,0.020078125,-1163,-8723,4992,-6,-1,1
4609,0.01984375,-1161,-8720,4968,-6,-2,1
4865,0.02,-1220,-8723,4956,-6,-1,0
5122,0.020078125,-1228,-8721,4971,-6,-1,1
5376,0.01984375,-1250,-8730,4972,-5,-1,1
5631,0.019921875000000002,-1271,-8671,4978,-7,-1,2
5886,0.019921875000000002,-1299,-8709,4968,-7,0,0
6144,0.02015625,-1333,-8700,4955,-5,-1,1
6399,0.019921875000000002,-1378,-8711,4945,-6,-1,1
6657,0.02015625,-1364,-8689,4960,-7,0,2
6913,0.02,-1440,-8679,4982,-7,-1,1
7171,0.02015625,-1439,-8661,4989,-5,-1,1
7429,0.02015625,-1480,-8650,4942,-6,-1,1
7684,0.019921875000000002,-1488,-8621,4961,-6,0,1
7940,0.02,-1497,-8652,4959,-7,-2,0
8197,0.020078125,-1539,-8670,4981,-6,-1,0
8451,0.01984375,-1562,-8657,4947,-6,-1,1
8708,0.020078125,-1588,-8639,4968,-7,0,1
8964,0.02,-1600,-8637,4974,-6,0,0
9218,0.01984375,-1633,-8601,4958,-6,-1,1
9476,0.02015625,-1650,-8639,4947,-5,0,2
9731,0.019921875000000002,-1708,-8616,4951,-6,-2,1
9989,0.02015625,-1723,-8613,4955,-7,0,0
10244,0.019921875000000002,-1746,-8576,4983,-7,-1,1
10500,0.02,-1781,-8622,4966,-6,0,1
10755,0.019921875000000002,-1789,-8614,4945,-6,0,0
11013,0.02015625,-1832,-8610,4958,-6,-1,1
11271,0.02015625,-1875,-8593,4986,-6,-1,1
11528,0.020078125,-1908,-8593,4980,-6,0,1
11786,0.02015625,-1911,-8562,4920,-6,-1,2
12043,0.020078125,-1922,-8582,4978,-6,-1,1
12298,0.019921875000000002,-1965,-8536,4965,-6,0,1
12556,0.02015625,-1976,-8531,4968,-6,0,1
12812,0.02,-2013,-8520,4983,-6,-1,2
13067,0.019921875000000002,-2028,-8534,4954,-6,0,0
13321,0.01984375,-2064,-8528,4953,-6,0,1
13578,0.020078125,-2096,-8514,4960,-7,0,1
13833,0.019921875000000002,-2078,-8497,4969,-6,0,0
14090,0.020078125,-2169,-8525,4957,-7,-1,1
14344,0.01984375,-2172,-8515,4953,-5,0,1
14601,0.020078125,-2196,-8498,4946,-6,0,1
14858,0.020078125,-2237,-8491,4959,-7,0,1
15114,0.02,-2239,-8450,4976,-5,1,1
15371,0.020078125,-2269,-8461,4949,-6,0,1
15629,0.02015625,-2307,-8479,4963,-6,-1,0
15887,0.02015625,-2340,-8474,4963,-6,0,1
16143,0.02,-2333,-8444,4960,-5,0,1
16401,0.02015625,-2355,-8481,4952,-6,1,2
16659,0.02015625,-2422,-8417,4939,-7,0,1
16913,0.01984375,-2449,-8421,4966,-5,0,1
17168,0.019921875000000002,-2451,-8397,4914,-6,0,0
17425,0.020078125,-2480,-8416,4946,-6,0,1
17681,0.02,-2509,-8409,4956,-7,0,1
17935,0.01984375,-2508,-8389,4973,-6,0,0
18191,0.02,-2563,-8371,4978,-7,0,1
18446,0.019921875000000002,-2569,-8408,4931,-6,-1,1
18703,0.020078125,-2601,-8367,4953,-6,1,1
18959,0.02,-2639,-8364,4961,-5,1,1
19213,0.01984375,-2663,-8364,4951,-6,0,1
19467,0.01984375,-2666,-8352,4964,-6,1,0
19722,0.019921875000000002,-2707,-8340,4964,-6,-1,0
19976,0.01984375,-2731,-8329,4979,-6,0,1
20234,0.02015625,-2739,-8330,4952,-6,1,1
20489,0.019921875000000002,-2791,-8314,4962,-6,0,0
20746,0.020078125,-2800,-8308,4947,-7,0,1
21000,0.01984375,-2835,-8291,4965,-6,1,1
21256,0.02,-2864,-8300,4944,-6,0,1
21514,0.02015625,-2895,-8300,4965,-6,0,0
21771,0.020078125,-2900,-8245,4947,-6,1,0
22026,0.019921875000000002,-2901,-8220,4912,-6,0,1
22283,0.020078125,-2962,-8235,4951,-6,0,1
22539,0.02,-2999,-8262,4982,-6,0,1
22794,0.019921875000000002,-2998,-8201,4961,-7,0,1
23052,0.02015625,-3035,-8244,4964,-6,1,2
23310,0.02015625,-3059,-8201,4933,-5,0,0
23566,0.02,-3085,-8205,4947,-5,0,2
23820,0.01984375,-3125,-8164,4936,-6,0,1
24076,0.02,-3118,-8155,4969,-6,1,0
24332,0.02,-3170,-8185,4945,-6,0,1
24590,0.02015625,-3157,-8140,4942,-6,1,0
24847,0.020078125,-3187,-8150,4978,-7,1,1
25102,0.019921875000000002,-3234,-8157,4960,-5,2,1
25358,0.02,-3262,-8141,4930,-5,0,2
25612,0.01984375,-3270,-8110,4946,-5,1,1
25868,0.02,-3292,-8107,4938,-5,1,1
26124,0.02,-3334,-8112,4976,-5,1,1
26380,0.02,-3356,-8062,4944,-6,2,1
26636,0.02,-3349,-8093,4957,-5,1,1
26892,0.02,-3418,-8045,4938,-6,0,2
27149,0.020078125,-3407,-8051,4932,-5,1,0
27405,0.02,-3476,-8049,4927,-6,1,1
27659,0.01984375,-3468,-8039,4950,-5,1,1
27916,0.020078125,-3521,-7994,4942,-5,1,1
28173,0.020078125,-3512,-8012,4965,-6,1,1
28430,0.020078125,-3541,-8000,4949,-6,1,1
28687,0.020078125,-3578,-7983,4950,-6,1,0
28941,0.01984375,-3559,-7955,4952,-5,0,0
29199,0.02015625,-3625,-7979,4944,-5,2,0
29457,0.02015625,-3637,-7947,4953,-6,2,1
29711,0.01984375,-3640,-7947,4959,-6,1,1
29966,0.019921875000000002,-3695,-7963,4901,-5,2,2
30221,0.019921875000000002,-3715,-7931,4941,-6,1,2
30479,0.02015625,-3705,-7892,4947,-6,2,1
30737,0.02015625,-3767,-7880,4938,-5,0,1
30992,0.019921875000000002,-3788,-7857,4944,-6,1,1
31249,0.020078125,-3823,-7870,4946,-5,0,1
31504,0.019921875000000002,-3822,-7856,4943,-5,1,0
31758,0.01984375,-3858,-7822,4930,-6,1,1
32013,0.019921875000000002,-3883,-7838,4947,-6,1,0
32267,0.01984375,-3921,-7792,4935,-5,1,1
32525,0.02015625,-3944,-7799,4946,-4,2,1
32782,0.020078125,-3942,-7755,4921,-6,1,1
33036,0.01984375,-3981,-7793,4966,-6,1,1
33292,0.02,-4000,-7776,4925,-6,1,1
33547,0.019921875000000002,-4044,-7736,4947,-5,2,1
33803,0.02,-4057,-7743,4942,-5,1,0
34061,0.02015625,-4078,-7716,4947,-5,2,1
34319,0.02015625,-4072,-7697,4970,-4,2,1
34577,0.02015625,-4119,-7696,4939,-5,1,1
34832,0.019921875000000002,-4175,-7656,4941,-5,2,1
35086,0.01984375,-4141,-7687,4980,-5,2,2
35340,0.01984375,-4203,-7659,4965,-6,2,1
35594,0.01984375,-4179,-7665,4968,-6,1,0
35851,0.020078125,-4248,-7621,4927,-5,1,0
36108,0.020078125,-4263,-7609,4939,-5,2,1
36366,0.02015625,-4283,-7615,4944,-5,1,0
36620,0.01984375,-4312,-7589,4931,-5,1,0
36875,0.019921875000000002,-4329,-7575,4921,-6,2,1
37132,0.020078125,-4345,-7568,4965,-5,1,1
37389,0.020078125,-4368,-7525,4933,-5,2,2
37645,0.02,-4373,-7527,4938,-5,2,2
37899,0.01984375,-4414,-7521,4935,-6,2,0
38155,0.02,-4422,-7520,4944,-5,1,2
38409,0.01984375,-4467,-7484,4950,-5,2,1
38665,0.02,-4476,-7446,4949,-4,2,0
38923,0.02015625,-4467,-7466,4964,-5,2,0
39177,0.01984375,-4519,-7446,4965,-5,2,0
39431,0.01984375,-4552,-7422,4944,-5,2,1
39688,0.020078125,-4556,-7447,4949,-5,1,1
39942,0.01984375,-4577,-7383,4938,-5,2,1
40200,0.02015625,-4629,-7393,4953,-5,1,0
40457,0.020078125,-4628,-7377,4945,-4,1,1
40713,0.02,-4665,-7348,4958,-6,2,1
40968,0.019921875000000002,-4688,-7340,4946,-5,2,1
41223,0.019921875000000002,-4722,-7308,4957,-5,1,1
41478,0.019921875000000002,-4726,-7325,4934,-6,2,1
41736,0.02015625,-4776,-7287,4938,-5,2,0
41993,0.020078125,-4785,-7285,4939,-5,2,1
42248,0.019921875000000002,-4801,-7224,4927,-5,4,1
42502,0.01984375,-4838,-7233,4925,-4,2,1
42758,0.02,-4815,-7221,4953,-5,2,1
43015,0.020078125,-4843,-7212,4965,-4,2,1
43272,0.020078125,-4881,-7217,4937,-5,2,1
43527,0.019921875000000002,-4904,-7171,4948,-5,2,2
43783,0.02,-4928,-7168,4933,-5,3,1
44037,0.01984375,-4941,-7152,4947,-5,2,1
44293,0.02,-4976,-7131,4940,-5,2,1
44550,0.020078125,-5004,-7127,4929,-5,3,0
44805,0.019921875000000002,-5023,-7083,4929,-5,2,1
45060,0.019921875000000002,-5021,-7075,4945,-5,2,0
45316,0.02,-5036,-7058,4926,-5,2,0
45574,0.02015625,-5074,-7059,4922,-6,2,1
45831,0.020078125,-5099,-7050,4946,-5,3,1
46089,0.02015625,-5131,-7018,4917,-4,2,1
46343,0.01984375,-5145,-6987,4919,-5,3,1
46601,0.02015625,-5136,-6986,4963,-5,3,0
46855,0.01984375,-5176,-7005,4919,-4,2,1
47110,0.019921875000000002,-5190,-6961,4921,-5,2,1
47366,0.02,-5223,-6941,4960,-5,3,0
47621,0.019921875000000002,-5244,-6901,4952,-5,3,1
47879,0.02015625,-5274,-6893,4963,-4,3,1
48137,0.02015625,-5309,-6878,4920,-5,4,1
48393,0.02,-5319,-6850,4920,-5,3,1
48649,0.02,-5352,-6842,4929,-4,2,1
48906,0.020078125,-5323,-6846,4931,-4,2,1
49163,0.020078125,-5373,-6820,4935,-5,3,1
49419,0.02,-5399,-6800,4933,-5,3,0
49677,0.02015625,-5422,-6785,4921,-4,3,1
49931,0.01984375,-5439,-6764,4915,-5,2,1
50186,0.019921875000000002,-5490,-6763,4955,-4,3,1
50440,0.01984375,-5462,-6735,4918,-4,3,2
50694,0.01984375,-5498,-6681,4931,-4,4,0
50948,0.01984375,-5520,-6708,4914,-4,3,1
51205,0.020078125,-5525,-6702,4952,-5,3,1
51463,0.02015625,-5533,-6658,4901,-4,3,0
51719,0.02,-5571,-6644,4912,-4,3,1
51975,0.02,-5600,-6602,4932,-4,3,1
52230,0.019921875000000002,-5593,-6592,4942,-4,2,0
52484,0.01984375,-5636,-6595,4916,-5,2,1
52740,0.02,-5654,-6577,4933,-5,3,1
52994,0.01984375,-5662,-6544,4911,-4,2,1
53251,0.020078125,-5704,-6523,4911,-4,3,1
53507,0.02,-5724,-6510,4934,-4,2,0
53762,0.019921875000000002,-5690,-6496,4903,-5,2,1
54016,0.01984375,-5739,-6487,4924,-4,2,0
54271,0.019921875000000002,-5774,-6466,4926,-5,3,1
54525,0.01984375,-5782,-6433,4934,-5,3,1
54782,0.020078125,-5812,-6401,4920,-4,4,1
55038,0.02,-5844,-6431,4946,-4,3,1
55295,0.020078125,-5861,-6385,4938,-5,3,1
55551,0.02,-5864,-6341,4947,-4,2,0
55809,0.02015625,-5875,-6364,4925,-4,4,1
56066,0.020078125,-5916,-6323,4935,-4,4,0
56320,0.01984375,-5923,-6296,4923,-4,3,1
56574,0.01984375,-5941,-6278,4920,-4,4,1
56832,0.02015625,-5978,-6261,4893,-4,4,1
57087,0.019921875000000002,-5980,-6290,4923,-4,3,1
57344,0.020078125,-6004,-6228,4909,-4,3,0
57601,0.020078125,-6036,-6183,4924,-4,3,0
57858,0.020078125,-6024,-6219,4920,-4,3,0
58113,0.019921875000000002,-6084,-6179,4917,-4,4,0
58368,0.019921875000000002,-6071,-6145,4942,-4,4,1
58624,0.02,-6087,-6150,4888,-4,4,1
58878,0.01984375,-6120,-6085,4921,-4,4,2
59133,0.019921875000000002,-6135,-6097,4905,-3,4,1
59389,0.02,-6102,-6063,4908,-4,3,1
59644,0.019921875000000002,-6173,-6056,4906,-3,4,1
59899,0.019921875000000002,-6174,-6021,4931,-4,4,1
60157,0.02015625,-6192,-6005,4924,-3,3,1
60412,0.019921875000000002,-6216,-5997,4915,-4,3,0
60670,0.02015625,-6250,-5963,4945,-4,2,1
60928,0.02015625,-6266,-5940,4926,-4,3,1
61185,0.020078125,-6255,-5927,4942,-3,4,0
61439,0.01984375,-6277,-5913,4937,-4,3,2
61694,0.019921875000000002,-6326,-5869,4928,-4,4,0
61952,0.02015625,-6329,-5881,4920,-3,4,0
62206,0.01984375,-6334,-5845,4917,-3,4,0
62462,0.02,-6337,-5824,4924,-4,4,1
62718,0.02,-6405,-5814,4945,-3,4,1
62976,0.02015625,-6388,-5787,4922,-3,3,1
63234,0.02015625,-6412,-5787,4922,-4,4,0
63489,0.019921875000000002,-6440,-5748,4939,-4,5,1
63745,0.02,-6457,-5717,4919,-3,3,0
64002,0.020078125,-6462,-5681,4891,-3,4,0
64260,0.02015625,-6531,-5701,4924,-4,4,1
64516,0.02,-6519,-5663,4925,-3,3,1
64770,0.01984375,-6529,-5649,4916,-3,4,0
65028,0.02015625,-6523,-5583,4927,-3,4,0
65284,0.02,-6553,-5613,4920,-4,4,0
2,0.01984375,-6575,-5564,4922,-4,3,0
256,0.01984375,-6583,-5543,4927,-4,4,1
511,0.019921875000000002,-6621,-5518,4935,-3,4,1
768,0.020078125,-6628,-5498,4915,-4,3,1
1026,0.02015625,-6636,-5493,4949,-4,4,0
1282,0.02,-6662,-5450,4945,-4,4,0
1536,0.01984375,-6650,-5427,4921,-4,3,1
1794,0.02015625,-6678,-5453,4917,-3,4,2
2051,0.020078125,-6693,-5416,4918,-3,3,0
2307,0.02,-6696,-5393,4938,-4,4,1
2561,0.01984375,-6744,-5348,4891,-3,3,1
2819,0.02015625,-6738,-5325,4902,-4,4,1
3073,0.01984375,-6798,-5313,4926,-3,4,1
3330,0.020078125,-6791,-5320,4923,-4,4,1
3586,0.02,-6778,-5269,4929,-4,4,1
3842,0.02,-6796,-5255,4917,-3,4,0
4098,0.02,-6792,-5241,4920,-3,4,1
4353,0.019921875000000002,-6849,-5206,4904,-2,4,1
4609,0.02,-6867,-5185,4914,-4,4,1
4864,0.019921875000000002,-6860,-5176,4912,-4,5,0
5120,0.02,-6885,-5121,4918,-4,3,1
5377,0.020078125,-6927,-5107,4922,-3,4,0
5634,0.020078125,-6938,-5080,4910,-4,4,0
5888,0.01984375,-6932,-5047,4920,-3,4,2
6146,0.02015625,-6970,-5046,4930,-3,5,1
6400,0.01984375,-6938,-4991,4924,-3,5,0
6655,0.019921875000000002,-7004,-4982,4923,-3,4,0
6910,0.019921875000000002,-7002,-4989,4933,-2,4,1
7165,0.019921875000000002,-7037,-4946,4928,-2,5,0
7420,0.019921875000000002,-7035,-4943,4921,-3,4,1
7675,0.019921875000000002,-7061,-4925,4903,-3,4,1
7931,0.02,-7061,-4898,4932,-3,5,1
8188,0.020078125,-7074,-4872,4918,-2,4,1
8446,0.02015625,-7100,-4829,4909,-2,4,2
8701,0.019921875000000002,-7120,-4840,4909,-3,4,1
8956,0.019921875000000002,-7117,-4802,4912,-3,5,0
9213,0.020078125,-7151,-4760,4914,-2,4,1
9467,0.01984375,-7130,-4756,4906,-2,5,0
9723,0.02,-7177,-4763,4926,-3,4,0
9978,0.019921875000000002,-7191,-4709,4907,-3,5,2
10235,0.020078125,-7189,-4662,4905,-4,4,0
10489,0.01984375,-7202,-4667,4888,-2,4,0
10747,0.02015625,-7203,-4643,4933,-3,4,1
11002,0.019921875000000002,-7221,-4597,4915,-2,5,1
11258,0.02,-7246,-4607,4925,-3,4,1
11514,0.02,-7279,-4537,4916,-2,4,0
11770,0.02,-7273,-4533,4926,-3,3,0
12026,0.02,-7254,-4531,4937,-3,4,1
12281,0.019921875000000002,-7311,-4467,4917,-2,4,1
12538,0.020078125,-7288,-4469,4942,-3,5,1
12794,0.02,-7341,-4440,4916,-3,5,1
13049,0.019921875000000002,-7340,-4420,4914,-3,5,0
13304,0.019921875000000002,-7312,-4417,4906,-3,6,0
13560,0.02,-7359,-4368,4920,-2,5,1
13818,0.02015625,-7375,-4376,4916,-3,4,0
14076,0.02015625,-7385,-4349,4917,-3,4,1
14331,0.019921875000000002,-7395,-4283,4938,-3,5,0
14586,0.019921875000000002,-7406,-4283,4901,-2,5,1
14840,0.01984375,-7427,-4250,4922,-2,5,1
15096,0.02,-7430,-4252,4912,-3,5,2
15351,0.019921875000000002,-7462,-4201,4925,-3,4,1
15609,0.02015625,-7511,-4194,4930,-2,5,1
15865,0.02,-7477,-4147,4909,-2,4,1
16120,0.019921875000000002,-7470,-4110,4908,-3,5,1
16378,0.02015625,-7500,-4116,4920,-3,5,1
16636,0.02015625,-7493,-4071,4893,-2,6,0
16891,0.019921875000000002,-7530,-4036,4922,-1,4,0
17145,0.01984375,-7523,-4051,4910,-2,5,1
17400,0.019921875000000002,-7547,-4015,4931,0,5,1
17655,0.019921875000000002,-7585,-3994,4910,-2,5,2
17911,0.02,-7559,-3962,4895,-1,5,0
18169,0.02015625,-7579,-3920,4876,-2,5,1
18427,0.02015625,-7609,-3923,4923,-2,5,0
18684,0.020078125,-7633,-3874,4916,-2,5,0
18942,0.02015625,-7604,-3884,4931,-1,5,0
19196,0.01984375,-7648,-3839,4892,-2,5,1
19450,0.01984375,-7663,-3801,4919,-1,5,1
19708,0.02015625,-7652,-3772,4892,-2,5,1
19965,0.020078125,-7663,-3752,4917,-2,4,1
20220,0.019921875000000002,-7676,-3752,4908,-3,5,1
20477,0.020078125,-7701,-3688,4894,-1,6,1
20731,0.01984375,-7704,-3704,4891,-2,5,0
20988,0.020078125,-7719,-3663,4918,-2,5,1
21246,0.02015625,-7728,-3609,4914,-3,5,1
21502,0.02,-7738,-3630,4937,-2,5,1
21759,0.020078125,-7738,-3561,4919,-2,5,0
22016,0.020078125,-7755,-3581,4895,-2,5,0
22274,0.02015625,-7761,-3549,4929,-2,4,1
22530,0.02,-7793,-3492,4910,-2,5,0
22785,0.019921875000000002,-7809,-3480,4893,-2,5,1
23040,0.019921875000000002,-7819,-3470,4896,-1,5,1
23295,0.019921875000000002,-7801,-3455,4900,-2,5,1
23549,0.01984375,-7817,-3409,4907,-2,5,1
23806,0.020078125,-7824,-3381,4892,-2,5,2
24061,0.019921875000000002,-7838,-3365,4913,-2,6,1
24318,0.020078125,-7861,-3336,4901,-1,5,1
24572,0.01984375,-7852,-3319,4912,-1,4,1
24827,0.019921875000000002,-7871,-3281,4909,-1,6,0
25082,0.019921875000000002,-7885,-3247,4916,-1,6,1
25336,0.01984375,-7873,-3236,4894,-2,5,1
25594,0.02015625,-7893,-3209,4903,-1,5,1
25850,0.02,-7924,-3169,4899,-1,5,2
26108,0.02015625,-7925,-3152,4917,-2,5,1
26366,0.02015625,-7935,-3135,4925,-2,5,1
26620,0.01984375,-7958,-3095,4887,-1,5,1
26878,0.02015625,-7966,-3075,4922,-2,5,1
27132,0.01984375,-7948,-3088,4938,-1,5,1
27390,0.02015625,-7992,-3015,4899,-1,5,1
27647,0.020078125,-7985,-2987,4890,0,6,2
27905,0.02015625,-7963,-2975,4925,-1,4,2
28161,0.02,-7974,-2948,4889,-1,4,1
28415,0.01984375,-8024,-2918,4894,-2,5,1
28669,0.01984375,-7996,-2915,4896,-2,4,2
28923,0.01984375,-7986,-2869,4894,-1,6,1
29181,0.02015625,-8022,-2844,4898,-1,5,0
29437,0.02,-8027,-2825,4908,0,5,1
29692,0.019921875000000002,-8069,-2799,4907,0,4,1
29946,0.01984375,-8029,-2778,4903,-1,5,2
30200,0.01984375,-8052,-2720,4901,-1,5,0
30455,0.019921875000000002,-8060,-2719,4896,-1,5,1
30712,0.020078125,-8082,-2670,4900,-1,5,1
30970,0.02015625,-8081,-2686,4921,-1,6,1
31227,0.020078125,-8102,-2649,4916,-1,6,1
31485,0.02015625,-8083,-2602,4910,-1,5,1
31740,0.019921875000000002,-8107,-2574,4906,-1,6,1
31995,0.019921875000000002,-8113,-2553,4895,-1,5,1
32252,0.020078125,-8110,-2546,4920,-1,5,1
32506,0.01984375,-8107,-2499,4916,0,6,1
32764,0.02015625,-8156,-2447,4921,-1,5,1
33021,0.020078125,-8148,-2445,4916,-1,5,1
33275,0.01984375,-8159,-2422,4885,-1,6,1
33529,0.01984375,-8170,-2415,4905,0,5,1
33786,0.020078125,-8160,-2349,4908,-1,5,2
34043,0.020078125,-8191,-2344,4901,-1,5,1
34298,0.019921875000000002,-8178,-2299,4902,-1,5,0
34555,0.020078125,-8181,-2261,4911,0,5,1
34811,0.02,-8178,-2235,4926,0,5,1
35068,0.020078125,-8210,-2260,4887,0,5,0
35324,0.02,-8206,-2216,4886,-1,5,0
35580,0.02,-8198,-2214,4874,0,5,1
35835,0.019921875000000002,-8227,-2172,4903,-1,6,1
36089,0.01984375,-8226,-2095,4900,0,6,1
36343,0.01984375,-8227,-2102,4905,-1,6,2
36597,0.01984375,-8219,-2074,4916,-1,5,1
36855,0.02015625,-8221,-2063,4896,1,5,2
37111,0.02,-8246,-2021,4898,0,6,0
37366,0.019921875000000002,-8261,-1984,4901,-1,6,1
37624,0.02015625,-8268,-1968,4885,-1,5,1
37882,0.02015625,-8281,-1955,4887,0,4,0
38137,0.019921875000000002,-8300,-1911,4875,0,6,2
38392,0.019921875000000002,-8305,-1886,4888,-1,5,1
38648,0.02,-8275,-1875,4913,-1,5,0
38906,0.02015625,-8288,-1840,4900,0,5,1
39163,0.020078125,-8292,-1814,4908,0,5,1
39419,0.02,-8282,-1800,4929,-1,5,0
39674,0.019921875000000002,-8272,-1764,4894,0,5,1
39929,0.019921875000000002,-8312,-1782,4903,0,6,1
40183,0.01984375,-8318,-1690,4885,0,5,0
40440,0.020078125,-8323,-1654,4904,1,5,1
40698,0.02015625,-8335,-1645,4905,0,6,0
40955,0.020078125,-8316,-1595,4893,-1,6,1
41210,0.019921875000000002,-8336,-1586,4894,0,5,2
41466,0.02,-8338,-1586,4883,0,5,0
41724,0.02015625,-8334,-1530,4895,0,6,1
41980,0.02,-8339,-1552,4897,0,5,1
42238,0.02015625,-8341,-1485,4923,1,5,1
42494,0.02,-8399,-1464,4880,0,6,1
42750,0.02,-8340,-1432,4935,0,5,1
43006,0.02,-8370,-1396,4886,0,5,1
43261,0.019921875000000002,-8357,-1368,4918,0,6,0
43517,0.02,-8394,-1368,4900,1,5,1
43772,0.019921875000000002,-8380,-1314,4893,0,5,1
44029,0.020078125,-8363,-1294,4889,1,5,2
44286,0.020078125,-8363,-1268,4877,1,6,1
44541,0.019921875000000002,-8373,-1231,4919,0,6,0
44799,0.02015625,-8381,-1214,4904,0,5,0
45055,0.02,-8383,-1164,4891,1,6,1
45313,0.02015625,-8421,-1179,4888,-1,6,1
45570,0.020078125,-8402,-1165,4872,0,7,0
45828,0.02015625,-8392,-1112,4900,1,5,0
46086,0.02015625,-8386,-1077,4916,0,6,1
46341,0.019921875000000002,-8404,-1048,4892,1,5,1
46596,0.019921875000000002,-8417,-1046,4874,0,6,0
46854,0.02015625,-8412,-994,4898,1,6,-1
47109,0.019921875000000002,-8424,-962,4923,1,5,1
47366,0.020078125,-8446,-918,4914,1,6,1
47620,0.01984375,-8406,-896,4905,0,6,1
47878,0.02015625,-8430,-892,4916,2,5,1
48135,0.020078125,-8424,-852,4891,2,6,1
48391,0.02,-8406,-838,4897,0,5,0
48647,0.02,-8423,-798,4894,1,6,0
48904,0.020078125,-8433,-767,4871,1,5,1
49159,0.019921875000000002,-8456,-728,4881,0,6,1
49414,0.019921875000000002,-8463,-714,4868,0,5,1
49669,0.019921875000000002,-8423,-678,4896,0,6,2
49923,0.01984375,-8426,-660,4880,1,7,0
50181,0.02015625,-8463,-626,4891,0,6,1
50438,0.020078125,-8454,-630,4928,1,6,1
50694,0.02,-8457,-593,4919,2,5,1
50952,0.02015625,-8453,-573,4901,0,5,0
51209,0.020078125,-8460,-531,4882,2,6,2
51465,0.02,-8456,-511,4924,1,5,1
51719,0.01984375,-8474,-465,4906,2,6,1
51975,0.02,-8458,-461,4929,0,5,1
52229,0.01984375,-8433,-418,4912,0,5,0
52486,0.020078125,-8447,-416,4878,1,6,1
52740,0.01984375,-8451,-357,4894,1,6,1
52996,0.02,-8447,-333,4879,2,6,1
53251,0.019921875000000002,-8465,-321,4910,0,5,1
53505,0.01984375,-8438,-267,4872,2,6,0
53761,0.02,-8500,-257,4913,2,5,2
54016,0.019921875000000002,-8496,-234,4890,2,6,1
54271,0.019921875000000002,-8484,-188,4904,0,5,1
54529,0.02015625,-8466,-193,4893,2,6,0
54784,0.019921875000000002,-8436,-131,4891,1,6,0
55040,0.02,-8459,-138,4895,1,5,2
55294,0.01984375,-8463,-88,4866,1,6,1
55549,0.019921875000000002,-8497,-60,4901,2,5,0
55804,0.019921875000000002,-8479,-52,4907,0,5,2
56061,0.020078125,-8464,5,4871,1,6,1
56315,0.01984375,-8462,2,4897,1,6,2
56573,0.02015625,-8456,37,4858,1,6,0
56827,0.01984375,-8469,84,4918,1,5,1
57084,0.020078125,-8472,93,4902,2,7,1
57338,0.01984375,-8445,113,4903,1,6,1
57596,0.02015625,-8461,193,4917,2,6,2
57853,0.020078125,-8482,205,4880,1,6,1
58111,0.02015625,-8477,204,4897,2,6,3
58369,0.02015625,-8453,228,4876,2,5,1
58627,0.02015625,-8451,259,4925,1,6,1
58884,0.020078125,-8444,313,4901,2,5,1
59142,0.02015625,-8442,344,4870,1,6,-1
59396,0.01984375,-8447,365,4886,2,5,1
59653,0.020078125,-8461,366,4884,2,5,2
59911,0.02015625,-8458,409,4886,2,5,0
60166,0.019921875000000002,-8468,434,4911,1,5,0
60424,0.02015625,-8453,475,4888,2,6,1
60680,0.02,-8459,488,4882,2,6,0
60936,0.02,-8443,512,4902,2,6,1
61191,0.019921875000000002,-8430,528,4874,0,6,0
61445,0.01984375,-8436,539,4884,2,5,1
61703,0.02015625,-8448,595,4903,2,6,0
61960,0.020078125,-8445,633,4879,2,5,1
62216,0.02,-8451,623,4902,3,5,1
62474,0.02015625,-8417,687,4888,2,6,1
62728,0.01984375,-8430,702,4878,2,6,1
62985,0.020078125,-8427,758,4884,3,5,1
63241,0.02,-8408,756,4919,2,5,1
63498,0.020078125,-8407,801,4878,2,6,1
63752,0.01984375,-8385,818,4893,3,5,1
64009,0.020078125,-8443,835,4909,3,5,0
64266,0.020078125,-8407,860,4889,3,5,0
64524,0.02015625,-8432,897,4865,2,5,2
64779,0.019921875000000002,-8377,908,4897,2,5,2
65033,0.01984375,-8413,947,4879,3,4,1
65287,0.01984375,-8404,969,4906,3,5,2
5,0.01984375,-8421,1025,4895,2,5,1
260,0.019921875000000002,-8393,1019,4890,2,5,0
518,0.02015625,-8410,1054,4899,2,7,0
772,0.01984375,-8383,1088,4905,3,5,1
1026,0.01984375,-8397,1124,4865,3,6,1
1280,0.01984375,-8386,1140,4912,4,6,1
1535,0.019921875000000002,-8369,1179,4879,2,5,1
1792,0.020078125,-8399,1186,4901,3,6,0
2047,0.019921875000000002,-8336,1201,4862,3,5,1
2303,0.02,-8368,1248,4880,3,5,1
2558,0.019921875000000002,-8366,1264,4867,3,5,0
2816,0.02015625,-8351,1279,4914,3,5,0
3070,0.01984375,-8343,1332,4882,3,5,0
3325,0.019921875000000002,-8367,1365,4892,3,5,1
3581,0.02,-8348,1372,4898,3,5,1
3839,0.02015625,-8343,1411,4886,2,6,0
4095,0.02,-8352,1437,4903,3,5,1
4349,0.01984375,-8323,1432,4904,2,5,1
4605,0.02,-8295,1520,4903,3,5,1
4860,0.019921875000000002,-8331,1510,4894,3,6,0
5115,0.019921875000000002,-8317,1536,4886,3,5,1
5373,0.02015625,-8316,1566,4885,3,5,1
5631,0.02015625,-8312,1594,4916,3,5,1
5886,0.019921875000000002,-8318,1623,4887,2,6,1
6142,0.02,-8303,1648,4936,3,4,0
6398,0.02,-8281,1704,4882,4,6,1
6656,0.02015625,-8291,1714,4905,3,5,1
6914,0.02015625,-8252,1741,4905,3,6,1
7169,0.019921875000000002,-8262,1775,4896,3,6,1
7423,0.01984375,-8275,1832,4868,4,5,1
7677,0.01984375,-8226,1804,4881,3,5,1
7931,0.01984375,-8267,1855,4872,2,5,0
8188,0.020078125,-8230,1849,4876,3,5,0
8445,0.020078125,-8216,1884,4888,3,6,1
8703,0.02015625,-8253,1921,4888,4,5,2
8957,0.01984375,-8246,1952,4874,3,5,0
9211,0.01984375,-8235,1964,4902,3,5,1
9465,0.01984375,-8207,2009,4890,3,5,0
9722,0.020078125,-8196,2040,4878,3,5,0
9976,0.01984375,-8202,2055,4922,4,6,1
10233,0.020078125,-8209,2095,4886,4,6,1
10491,0.02015625,-8194,2139,4870,4,5,0
10745,0.01984375,-8201,2114,4901,3,5,1
11002,0.020078125,-8193,2162,4871,3,7,1
11258,0.02,-8180,2183,4890,4,5,1
11516,0.02015625,-8183,2204,4896,3,6,1
11771,0.019921875000000002,-8189,2247,4866,4,5,2
12026,0.019921875000000002,-8139,2256,4860,3,5,2
12280,0.01984375,-8148,2312,4886,3,5,1
12537,0.020078125,-8136,2309,4915,3,5,-1
12795,0.02015625,-8123,2353,4892,3,5,1
13049,0.01984375,-8119,2387,4887,4,5,1
13305,0.02,-8115,2384,4894,3,5,0
13562,0.020078125,-8113,2455,4889,4,6,1
13819,0.020078125,-8114,2447,4891,3,5,1
14077,0.02015625,-8080,2458,4878,3,6,1
14334,0.020078125,-8047,2502,4884,4,5,1
14592,0.02015625,-8086,2496,4892,4,6,1
14850,0.02015625,-8090,2558,4859,3,6,1
15108,0.02015625,-8049,2559,4887,4,6,1
15364,0.02,-8046,2637,4885,4,5,0
15620,0.02,-8036,2618,4899,4,6,1
15876,0.02,-8038,2674,4880,4,5,1
16134,0.02015625,-8036,2691,4914,4,5,0
16389,0.019921875000000002,-8022,2729,4903,4,6,1
16646,0.020078125,-7997,2760,4914,4,5,1
16903,0.020078125,-7993,2794,4909,5,6,1
17157,0.01984375,-8017,2801,4882,4,5,1
17413,0.02,-7989,2837,4849,4,6,2
17667,0.01984375,-7967,2874,4893,4,5,1
17924,0.020078125,-7981,2867,4873,4,5,1
18180,0.02,-7969,2908,4902,4,5,1
18435,0.019921875000000002,-7972,2935,4914,5,6,1
18689,0.01984375,-7908,2917,4883,5,5,1
18943,0.01984375,-7933,2980,4886,4,5,1
19200,0.020078125,-7935,3018,4900,5,5,0
19458,0.02015625,-7914,3073,4909,4,5,1
19713,0.019921875000000002,-7925,3076,4887,4,5,1
19971,0.02015625,-7906,3055,4895,3,5,1
20227,0.02,-7877,3122,4899,5,5,1
20482,0.019921875000000002,-7882,3147,4889,5,5,2
20738,0.02,-7857,3157,4898,4,5,1
20995,0.020078125,-7867,3178,4865,5,4,1
21253,0.02015625,-7836,3221,4863,4,5,1
21509,0.02,-7816,3222,4859,5,5,0
21764,0.019921875000000002,-7828,3278,4871,6,5,1
22021,0.020078125,-7834,3286,4888,4,6,1
22277,0.02,-7813,3325,4917,5,4,1
22532,0.019921875000000002,-7823,3349,4865,4,5,1
22788,0.02,-7789,3384,4901,5,4,2
23044,0.02,-7786,3413,4920,5,6,-1
23298,0.01984375,-7767,3428,4904,4,5,0
23552,0.01984375,-7747,3409,4907,5,5,1
23809,0.020078125,-7746,3466,4873,5,4,0
24063,0.01984375,-7733,3484,4894,4,6,1
24319,0.02,-7717,3515,4905,5,5,1
24576,0.020078125,-7737,3511,4889,5,5,1
24831,0.019921875000000002,-7690,3544,4890,4,5,0
25086,0.019921875000000002,-7682,3566,4884,5,5,0
25344,0.02015625,-7686,3590,4864,5,5,1
25598,0.01984375,-7656,3637,4886,4,5,0
25855,0.020078125,-7666,3664,4888,6,4,1
26109,0.01984375,-7664,3681,4884,5,5,1
26367,0.02015625,-7637,3691,4880,5,5,1
26623,0.02,-7623,3733,4864,5,5,1
26877,0.01984375,-7588,3759,4874,5,5,1
27134,0.020078125,-7604,3795,4897,5,4,1
27388,0.01984375,-7596,3814,4892,4,5,1
27643,0.019921875000000002,-7563,3837,4860,6,5,0
27899,0.02,-7572,3864,4900,5,5,0
28156,0.020078125,-7564,3854,4876,6,6,1
28412,0.02,-7546,3906,4897,4,4,2
28670,0.02015625,-7540,3923,4890,5,4,1
28926,0.02,-7503,3988,4888,5,6,1
29181,0.019921875000000002,-7519,3986,4906,5,5,0
29436,0.019921875000000002,-7488,4026,4871,5,5,0
29694,0.02015625,-7471,4038,4896,5,4,1
29951,0.020078125,-7470,4083,4918,6,4,1
30205,0.01984375,-7437,4091,4884,6,5,1
30462,0.020078125,-7460,4114,4886,5,5,1
30718,0.02,-7425,4140,4887,4,5,0
30973,0.019921875000000002,-7431,4137,4894,5,4,1
31227,0.01984375,-7381,4170,4887,6,5,1
31485,0.02015625,-7427,4227,4899,6,4,0
31739,0.01984375,-7372,4220,4899,6,5,1
31997,0.02015625,-7351,4245,4885,6,5,1
32251,0.01984375,-7349,4240,4887,5,5,0
32507,0.02,-7333,4281,4870,6,4,1
32761,0.01984375,-7305,4334,4902,5,5,1
33017,0.02,-7300,4316,4882,6,4,2
33275,0.02015625,-7294,4369,4907,5,5,1
33531,0.02,-7301,4387,4902,5,5,0
33787,0.02,-7291,4427,4903,5,5,1
34041,0.01984375,-7264,4428,4893,6,4,1
34299,0.02015625,-7242,4468,4890,5,5,1
34554,0.019921875000000002,-7228,4462,4879,6,5,1
34810,0.02,-7202,4540,4879,5,4,0
35068,0.02015625,-7211,4534,4909,6,5,2
35325,0.020078125,-7187,4531,4906,5,4,1
35582,0.020078125,-7170,4576,4872,6,5,1
35836,0.01984375,-7166,4584,4878,6,5,0
36092,0.02,-7173,4632,4876,6,4,0
36348,0.02,-7123,4684,4901,6,5,0
36602,0.01984375,-7128,4635,4916,6,5,1
36857,0.019921875000000002,-7120,4692,4917,6,4,0
37115,0.02015625,-7061,4717,4864,5,4,1
37373,0.02015625,-7064,4734,4902,6,5,1
37631,0.02015625,-7007,4756,4876,5,4,0
37889,0.02015625,-7033,4759,4892,5,4,1
38147,0.02015625,-6988,4794,4888,5,4,0
38401,0.01984375,-6996,4826,4924,6,4,1
38659,0.02015625,-7005,4868,4865,5,4,1
38916,0.020078125,-6959,4899,4898,6,5,0
39174,0.02015625,-6990,4908,4875,6,4,1
39431,0.020078125,-6934,4936,4893,6,4,1
39685,0.01984375,-6935,4986,4893,6,4,1
39941,0.02,-6906,4980,4893,6,5,1
40198,0.020078125,-6903,5005,4877,6,4,0
40452,0.01984375,-6874,4999,4883,6,4,1
40708,0.02,-6872,5035,4884,6,5,0
40965,0.020078125,-6858,5052,4897,5,4,1
41221,0.02,-6823,5086,4873,6,5,0
41478,0.020078125,-6825,5103,4885,7,4,1
41732,0.01984375,-6819,5133,4903,6,4,0
41987,0.019921875000000002,-6809,5163,4882,5,5,0
42245,0.02015625,-6780,5194,4888,6,3,0
42501,0.02,-6763,5197,4895,6,4,0
42755,0.01984375,-6737,5216,4920,6,4,1
43009,0.01984375,-6733,5242,4891,6,3,1
43265,0.02,-6691,5258,4903,7,4,0
43523,0.02015625,-6693,5297,4898,7,4,1
43777,0.01984375,-6681,5300,4908,5,4,1
44031,0.01984375,-6683,5333,4880,6,5,1
44286,0.019921875000000002,-6638,5350,4888,7,4,0
44541,0.019921875000000002,-6651,5374,4890,6,4,1
44795,0.01984375,-6605,5394,4882,7,4,1
45050,0.019921875000000002,-6604,5426,4887,7,5,0
45307,0.020078125,-6624,5446,4886,6,4,1
45565,0.02015625,-6544,5454,4910,7,4,1
45820,0.019921875000000002,-6538,5485,4906,6,4,1
46077,0.020078125,-6535,5477,4879,6,4,1
46335,0.02015625,-6533,5507,4886,7,4,1
46589,0.01984375,-6516,5544,4889,6,4,1
46847,0.02015625,-6493,5545,4910,6,4,1
47101,0.01984375,-6461,5574,4904,7,4,0
47358,0.020078125,-6424,5595,4880,6,4,1
47615,0.020078125,-6430,5633,4893,6,3,1
47873,0.02015625,-6410,5621,4904,6,5,0
48129,0.02,-6394,5652,4877,6,5,1
48386,0.020078125,-6386,5656,4865,6,3,1
48640,0.01984375,-6391,5703,4907,7,3,0
48896,0.02,-6352,5727,4873,7,4,1
49154,0.02015625,-6297,5745,4897,6,3,0
49408,0.01984375,-6271,5775,4896,6,4,0
49662,0.01984375,-6309,5778,4921,8,3,0
49919,0.020078125,-6292,5808,4894,7,4,1
50175,0.02,-6241,5817,4900,6,4,1
50431,0.02,-6231,5860,4868,6,3,0
50686,0.019921875000000002,-6220,5862,4911,7,4,1
50940,0.01984375,-6204,5890,4903,7,3,0
51197,0.020078125,-6203,5903,4857,8,4,0
51452,0.019921875000000002,-6176,5944,4875,6,3,1
51709,0.020078125,-6132,5966,4908,7,4,0
51965,0.02,-6150,5958,4880,7,3,1
52220,0.019921875000000002,-6095,6014,4866,6,3,1
52475,0.019921875000000002,-6089,5997,4903,7,3,0
52732,0.020078125,-6063,6024,4888,7,4,1
52987,0.019921875000000002,-6033,6068,4899,7,4,1
53245,0.02015625,-5991,6072,4903,7,3,1
53501,0.02,-6007,6095,4910,7,3,1
53759,0.02015625,-6012,6131,4884,7,4,1
54015,0.02,-5975,6114,4878,8,3,1
54271,0.02,-5934,6139,4899,7,3,1
54527,0.02,-5927,6157,4888,7,4,0
54783,0.02,-5909,6180,4883,7,4,1
55039,0.02,-5895,6220,4912,7,3,1
55297,0.02015625,-5871,6210,4869,6,3,1
55554,0.020078125,-5877,6257,4895,8,3,0
55808,0.01984375,-5833,6271,4884,6,3,0
56062,0.01984375,-5804,6274,4919,6,3,2
56316,0.01984375,-5815,6296,4887,7,3,0
56573,0.020078125,-5784,6325,4890,7,4,1
56828,0.019921875000000002,-5778,6317,4879,7,3,1
57083,0.019921875000000002,-5748,6341,4907,7,3,0
57341,0.02015625,-5732,6389,4882,8,2,1
57595,0.01984375,-5706,6419,4876,8,4,0
57849,0.01984375,-5689,6413,4871,7,4,1
58103,0.01984375,-5666,6431,4902,8,3,2
58358,0.019921875000000002,-5625,6458,4881,7,3,1
58612,0.01984375,-5651,6474,4913,8,3,0
58869,0.020078125,-5600,6482,4900,8,4,0
59126,0.020078125,-5581,6497,4892,8,3,1
59380,0.01984375,-5558,6519,4890,6,4,1
59636,0.02,-5537,6549,4875,7,4,1
59891,0.019921875000000002,-5533,6555,4910,8,2,2
60145,0.01984375,-5489,6573,4876,8,3,0
60401,0.02,-5487,6640,4894,7,2,2
60658,0.020078125,-5451,6632,4898,8,2,1
60913,0.019921875000000002,-5439,6649,4899,7,3,0
61170,0.020078125,-5457,6659,4888,7,3,1
61428,0.02015625,-5394,6693,4902,8,3,0
61682,0.01984375,-5367,6645,4885,7,2,1
61936,0.01984375,-5333,6716,4884,7,2,1
62191,0.019921875000000002,-5344,6687,4896,8,3,1
62449,0.02015625,-5325,6764,4894,8,2,1
62703,0.01984375,-5321,6744,4876,7,3,0
62959,0.02,-5267,6791,4894,8,3,1
63215,0.02,-5246,6813,4885,7,2,1
63469,0.01984375,-5219,6795,4863,7,3,1
63723,0.01984375,-5213,6812,4910,8,3,1
63977,0.01984375,-5186,6844,4881,8,3,1
64231,0.01984375,-5167,6839,4883,7,3,1
64487,0.02,-5169,6854,4863,6,3,2
64745,0.02015625,-5104,6873,4897,7,2,0
65000,0.019921875000000002,-5113,6901,4899,8,2,1
65255,0.019921875000000002,-5105,6901,4873,8,2,0
65510,0.019921875000000002,-5068,6919,4920,7,3,1
232,0.02015625,-5060,6955,4904,8,3,0
490,0.02015625,-5016,6963,4901,8,3,1
747,0.020078125,-4993,6997,4918,8,3,1
1003,0.02,-4989,6983,4903,8,2,1
1257,0.01984375,-4938,6995,4911,6,2,2
1515,0.02015625,-4943,7037,4907,7,2,1
1769,0.01984375,-4889,7033,4890,7,2,1
2023,0.01984375,-4894,7059,4888,8,2,0
2280,0.020078125,-4877,7078,4885,8,2,1
2534,0.01984375,-4853,7132,4928,7,2,0
2788,0.01984375,-4814,7109,4900,9,2,1
3044,0.02,-4800,7122,4912,7,3,1
3298,0.01984375,-4793,7130,4882,8,1,1
3553,0.019921875000000002,-4771,7174,4903,8,2,1
3810,0.020078125,-4719,7165,4886,7,2,1
4064,0.01984375,-4716,7212,4912,9,2,1
4321,0.020078125,-4717,7219,4898,8,2,1
4575,0.01984375,-4672,7226,4886,9,3,0
4832,0.020078125,-4642,7196,4907,7,2,0
5086,0.01984375,-4634,7267,4869,8,2,2
5343,0.020078125,-4602,7251,4890,9,2,0
5600,0.020078125,-4590,7281,4889,7,2,1
5857,0.020078125,-4569,7297,4899,9,2,1
6112,0.019921875000000002,-4550,7310,4897,8,2,1
6367,0.019921875000000002,-4531,7329,4908,8,3,1
6625,0.02015625,-4498,7313,4892,8,3,1
6882,0.020078125,-4456,7340,4896,9,2,1
7136,0.01984375,-4440,7377,4893,8,3,1
7390,0.01984375,-4423,7381,4898,8,2,1
7645,0.019921875000000002,-4417,7380,4899,7,2,1
7902,0.020078125,-4375,7446,4869,9,2,1
8157,0.019921875000000002,-4381,7445,4899,8,1,1
8415,0.02015625,-4324,7441,4916,9,2,2
8671,0.02,-4313,7459,4900,8,1,1
8929,0.02015625,-4311,7497,4922,9,2,0
9187,0.02015625,-4278,7516,4888,7,2,2
9443,0.02,-4220,7516,4916,8,1,1
9701,0.02015625,-4213,7512,4896,8,1,2
9957,0.02,-4171,7528,4903,8,2,2
10211,0.01984375,-4199,7549,4907,8,3,2
10466,0.019921875000000002,-4156,7566,4900,8,2,1
10722,0.02,-4126,7556,4892,8,1,1
10980,0.02015625,-4100,7597,4886,8,2,1
11238,0.02015625,-4082,7593,4916,9,2,1
11492,0.01984375,-4072,7638,4912,8,2,1
11746,0.01984375,-4015,7645,4886,9,2,2
12002,0.02,-4024,7657,4900,8,2,1
12258,0.02,-4005,7653,4914,8,1,1
12515,0.020078125,-3965,7665,4916,8,1,1
12770,0.019921875000000002,-3939,7691,4919,9,2,1
13028,0.02015625,-3940,7694,4884,8,3,1
13284,0.02,-3908,7706,4892,8,3,1
13539,0.019921875000000002,-3866,7707,4895,9,2,-1
13795,0.02,-3811,7728,4905,9,2,1
14053,0.02015625,-3830,7720,4904,9,1,0
14308,0.019921875000000002,-3781,7744,4894,8,1,0
14564,0.02,-3784,7766,4904,9,2,2
14822,0.02015625,-3738,7773,4891,8,2,1
15076,0.01984375,-3719,7786,4912,9,2,1
15332,0.02,-3717,7787,4891,9,2,0
15589,0.020078125,-3688,7815,4887,9,1,0
15847,0.02015625,-3655,7830,4888,8,1,0
16101,0.01984375,-3657,7813,4895,8,1,2
16358,0.020078125,-3629,7843,4933,9,1,1
16616,0.02015625,-3577,7885,4893,8,0,1
16871,0.019921875000000002,-3581,7864,4888,9,1,1
17128,0.020078125,-3560,7885,4883,8,2,1
17384,0.02,-3513,7942,4888,9,0,1
17641,0.020078125,-3507,7910,4903,8,2,1
17896,0.019921875000000002,-3458,7929,4880,8,1,1
18150,0.01984375,-3417,7925,4897,8,1,1
18408,0.02015625,-3418,7938,4910,8,1,1
18663,0.019921875000000002,-3435,7942,4885,9,1,1
18917,0.01984375,-3366,7953,4896,9,1,1
19175,0.02015625,-3356,7956,4903,9,0,1
19433,0.02015625,-3305,7998,4907,9,2,1
19690,0.020078125,-3307,7972,4929,10,0,0
19946,0.02,-3272,8024,4883,8,2,1
20201,0.019921875000000002,-3236,8013,4910,8,0,1
20458,0.020078125,-3252,8022,4898,9,1,0
20715,0.020078125,-3221,8039,4899,8,1,1
20971,0.02,-3175,8015,4913,8,1,0
21228,0.020078125,-3150,8075,4911,9,1,1
21484,0.02,-3146,8063,4900,9,1,1
21742,0.02015625,-3091,8096,4902,9,0,0
21999,0.020078125,-3104,8100,4914,9,0,1
22254,0.019921875000000002,-3046,8120,4929,9,1,1
22511,0.020078125,-3024,8103,4902,8,1,0
22766,0.019921875000000002,-2979,8127,4925,8,2,0
23021,0.019921875000000002,-2988,8119,4924,9,1,0
23279,0.02015625,-2966,8155,4916,9,1,-1
23535,0.02,-2939,8154,4899,9,0,1
23789,0.01984375,-2888,8165,4895,9,0,1
24044,0.019921875000000002,-2908,8143,4900,10,0,0
24302,0.02015625,-2841,8202,4908,9,0,1
24559,0.020078125,-2818,8175,4916,8,1,1
24817,0.02015625,-2798,8170,4890,9,0,1
25073,0.02,-2782,8203,4885,9,1,1
25327,0.01984375,-2758,8208,4913,9,0,2
25581,0.01984375,-2733,8238,4888,9,1,1
25835,0.01984375,-2712,8201,4896,9,0,1
26092,0.020078125,-2690,8236,4888,9,0,0
26349,0.020078125,-2653,8234,4886,9,0,0
26605,0.02,-2627,8270,4894,10,0,1
26862,0.020078125,-2577,8272,4885,8,1,0
27118,0.02,-2552,8267,4908,8,0,0
27375,0.020078125,-2538,8284,4913,9,0,1
27632,0.020078125,-2532,8307,4905,9,0,1
27888,0.02,-2515,8283,4922,9,-1,1
28145,0.020078125,-2474,8294,4889,9,-1,0
28400,0.019921875000000002,-2438,8339,4915,9,1,0
28657,0.020078125,-2410,8330,4894,9,0,1
28915,0.02015625,-2416,8336,4901,10,0,1
29170,0.019921875000000002,-2355,8337,4919,9,0,0
29427,0.020078125,-2352,8367,4888,9,0,0
29681,0.01984375,-2342,8346,4939,9,0,0
29936,0.019921875000000002,-2268,8358,4898,10,0,0
30193,0.020078125,-2279,8387,4908,8,-1,0
30448,0.019921875000000002,-2253,8346,4891,9,0,2
30703,0.019921875000000002,-2213,8382,4916,9,0,1
30958,0.019921875000000002,-2181,8433,4922,8,0,0
31212,0.01984375,-2151,8378,4892,9,0,1
31469,0.020078125,-2119,8411,4911,9,0,1
31723,0.01984375,-2107,8411,4932,9,0,1
31978,0.019921875000000002,-2081,8407,4914,9,1,1
32233,0.019921875000000002,-2063,8437,4913,10,0,1
32491,0.02015625,-2030,8434,4896,9,0,1
32749,0.02015625,-2003,8434,4921,9,0,1
33003,0.01984375,-1958,8452,4902,9,0,1
33257,0.01984375,-1931,8462,4896,10,0,0
33514,0.020078125,-1937,8482,4937,10,0,1
33769,0.019921875000000002,-1890,8471,4918,9,-1,1
34026,0.020078125,-1851,8469,4905,9,-1,0
34284,0.02015625,-1829,8471,4910,9,0,1
34538,0.01984375,-1824,8466,4905,9,0,1
34796,0.02015625,-1791,8501,4909,9,-1,2
35050,0.01984375,-1773,8499,4919,9,0,1
35305,0.019921875000000002,-1756,8508,4886,10,0,1
35561,0.02,-1742,8496,4931,11,0,1
35819,0.02015625,-1682,8500,4925,9,-1,0
36075,0.02,-1649,8518,4912,9,-1,0
36329,0.01984375,-1647,8503,4903,9,0,1
36584,0.019921875000000002,-1631,8525,4939,9,0,1
36841,0.020078125,-1569,8539,4905,9,-1,1
37097,0.02,-1579,8559,4927,9,-1,1
37351,0.01984375,-1551,8517,4901,9,-1,1
37607,0.02,-1490,8563,4910,8,0,1
37863,0.02,-1474,8584,4899,8,-1,1
38117,0.01984375,-1454,8542,4891,9,-1,1
38372,0.019921875000000002,-1434,8556,4901,9,-1,1
38630,0.02015625,-1399,8569,4897,9,-1,2
38887,0.020078125,-1396,8568,4914,9,0,1
39141,0.01984375,-1353,8591,4940,10,-1,1
39395,0.01984375,-1322,8586,4900,10,-1,1
39650,0.019921875000000002,-1316,8589,4884,9,-1,1
39906,0.02,-1242,8601,4935,10,0,2
40162,0.02,-1255,8584,4923,9,-1,1
40419,0.020078125,-1227,8625,4897,10,-1,0
40673,0.01984375,-1204,8595,4922,9,-1,0
40927,0.01984375,-1130,8610,4921,9,-1,2
41184,0.020078125,-1167,8617,4895,9,-1,0
41442,0.02015625,-1111,8578,4909,9,-2,2
41696,0.01984375,-1094,8616,4905,9,0,2
41951,0.019921875000000002,-1048,8640,4940,9,0,1
42208,0.020078125,-1030,8632,4887,9,-2,0
42462,0.01984375,-1003,8614,4914,9,-1,0
42720,0.02015625,-966,8632,4921,9,-1,1
42975,0.019921875000000002,-939,8625,4906,9,-2,0
43231,0.02,-929,8650,4903,9,-1,1
43486,0.019921875000000002,-909,8635,4902,9,-1,1
43743,0.020078125,-873,8666,4935,8,-1,1
43997,0.01984375,-854,8654,4889,10,-1,0
44251,0.01984375,-829,8627,4911,9,-2,1
44507,0.02,-775,8655,4911,9,-1,0
44765,0.02015625,-777,8653,4919,9,-1,0
45022,0.020078125,-731,8660,4954,9,-1,2
45279,0.020078125,-711,8662,4901,10,-2,1
45535,0.02,-695,8662,4895,10,-2,0
45789,0.01984375,-642,8660,4921,10,-1,0
46045,0.02,-624,8668,4911,9,-2,1
46303,0.02015625,-628,8668,4919,10,-2,2
46560,0.020078125,-567,8667,4900,9,-1,0
46817,0.020078125,-537,8666,4903,9,-2,1
47072,0.019921875000000002,-513,8680,4919,9,-2,1
47328,0.02,-499,8693,4926,9,-1,1
47585,0.020078125,-471,8677,4924,9,-1,2
47842,0.020078125,-435,8706,4894,9,-2,1
48100,0.02015625,-425,8660,4935,10,-1,1
48357,0.020078125,-392,8673,4919,10,-2,1
48612,0.019921875000000002,-352,8705,4905,9,-2,1
48867,0.019921875000000002,-325,8677,4934,9,-1,1
49124,0.020078125,-317,8698,4913,8,-2,1
49382,0.02015625,-312,8690,4887,9,-2,1
49640,0.02015625,-268,8691,4907,9,-2,0
49897,0.020078125,-231,8697,4916,10,-2,1
50153,0.02,-215,8679,4929,9,-2,1
50411,0.02015625,-197,8668,4912,10,-2,2
50669,0.02015625,-144,8703,4947,9,-2,1
50923,0.01984375,-105,8696,4910,10,-2,1
51178,0.019921875000000002,-96,8694,4928,9,-2,1
51433,0.019921875000000002,-32,8699,4911,9,-1,1
51689,0.02,-60,8702,4929,10,-2,1
51944,0.019921875000000002,-18,8702,4926,10,-2,0
52199,0.019921875000000002,3,8709,4893,8,-2,2
52453,0.01984375,13,8699,4914,9,-2,0
52707,0.01984375,42,8693,4918,9,-2,1
52963,0.02,79,8702,4919,6,-3,0
